#time,left.insoleId,left.ang.x,left.ang.y,left.ang.z,left.acc.x,left.acc.y,left.acc.z,left.forces.0,left.forces.1,left.forces.2,left.forces.3,left.forces.4,left.forces.5,left.forces.6,left.forces.7,left.forces.8,left.forces.12,left.forces.13,left.forces.14,left.forces.17,left.forces.18,left.forces.21,left.forces.22,left.totalForce,left.rawForces.0,left.rawForces.1,left.rawForces.2,left.rawForces.3,left.rawForces.4,left.rawForces.5,left.rawForces.6,left.rawForces.7,left.rawForces.8,left.rawForces.12,left.rawForces.13,left.rawForces.14,left.rawForces.17,left.rawForces.18,left.rawForces.21,left.rawForces.22,left.totalRawForce,right.insoleId,right.ang.x,right.ang.y,right.ang.z,right.acc.x,right.acc.y,right.acc.z,right.forces.0,right.forces.1,right.forces.2,right.forces.3,right.forces.4,right.forces.5,right.forces.6,right.forces.7,right.forces.8,right.forces.12,right.forces.13,right.forces.14,right.forces.17,right.forces.18,right.forces.21,right.forces.22,right.totalForce,right.rawForces.0,right.rawForces.1,right.rawForces.2,right.rawForces.3,right.rawForces.4,right.rawForces.5,right.rawForces.6,right.rawForces.7,right.rawForces.8,right.rawForces.12,right.rawForces.13,right.rawForces.14,right.rawForces.17,right.rawForces.18,right.rawForces.21,right.rawForces.22,right.totalRawForce
0.055,L101,298.0,-193.0,-193.0,1116.0,-1292.0,2511.0,0.115675956,0.91916835,1.0790735,0.96459174,-1.0408092,0.78288835,3.0340843,0.34328243,2.0083463,0.3179901,0.9935302,3.8055937,1.4763035,0.17301486,-0.81305677,0.7764276,14.936104,-3.0,-2.0,4.0,9.0,-3.0,0.0,6.0,-1.0,-1.0,-2.0,11.0,80.0,21.0,4.0,-1.0,1.0,123.0,R101,0.0,-3.0,-1.0,-22.0,28.0,996.0,-0.02758699,1.0846632,0.82838345,1.4216319,-2.9181287,0.7329366,4.1200867,0.72810054,7.2706227,15.044479,13.633149,19.483973,33.96138,19.96738,12.929973,7.989005,136.25005,10.0,3.0,21.0,21.0,-1.0,7.0,4.0,14.0,128.0,198.0,174.0,254.0,275.0,273.0,152.0,148.0,1681.0
0.087,L101,172.0,-154.0,-177.0,-703.0,-1890.0,2277.0,0.115675956,0.91916835,1.0260649,1.2881181,-0.7205044,1.0479956,3.1756516,0.30264163,2.0083463,0.27855557,0.9935302,4.6291323,1.8506688,0.23265727,-0.70580804,0.82150817,17.263401,-3.0,-2.0,2.0,13.0,2.0,4.0,11.0,-3.0,-1.0,-3.0,11.0,95.0,26.0,5.0,0.0,2.0,159.0,R101,1.0,-4.0,-2.0,-11.0,19.0,1000.0,0.06551421,0.692807,0.8416288,1.2216991,-3.2356255,0.3338313,4.1688595,1.179462,4.868346,13.405301,12.282442,18.529837,31.84432,20.537441,12.321901,8.219961,127.27773,11.0,-1.0,22.0,16.0,-3.0,1.0,6.0,27.0,97.0,179.0,157.0,246.0,264.0,278.0,146.0,156.0,1602.0
0.120,L101,109.0,36.0,-107.0,-8.0,-2794.0,1247.0,0.14972906,0.91916835,1.2281787,1.6694453,-0.7205044,0.7159244,3.1470196,0.36488646,1.6104891,0.3590551,0.9935302,4.8019643,1.8506688,0.29151344,-0.59939283,0.82150817,17.603184,-2.0,-2.0,9.0,18.0,2.0,-1.0,10.0,0.0,5.0,-1.0,11.0,98.0,26.0,6.0,1.0,2.0,182.0,R101,0.0,-2.0,-2.0,-11.0,24.0,997.0,-0.120884605,0.79405826,0.8059905,1.1071887,-3.2356255,0.5332616,4.243103,2.07537,4.7216444,13.405301,12.681616,20.083235,31.467186,20.080597,11.232109,7.934959,127.80911,9.0,0.0,19.0,13.0,-3.0,4.0,9.0,46.0,95.0,179.0,162.0,259.0,262.0,274.0,135.0,146.0,1609.0
0.153,L101,-40.0,-46.0,-73.0,-532.0,-2777.0,996.0,0.18552329,0.87324756,1.1965274,1.3663871,-0.9739776,0.64866316,3.2625175,0.34328243,1.7275879,0.3179901,1.1213392,5.278021,1.8506688,0.29151344,-0.38901776,0.91290903,18.013182,-1.0,-3.0,8.0,14.0,-2.0,-2.0,14.0,-1.0,3.0,-2.0,20.0,106.0,26.0,6.0,3.0,4.0,193.0,R101,-3.0,-11.0,-3.0,-9.0,13.0,1019.0,-1.3202382,1.5306237,0.90766317,1.0331625,-2.0387714,6.649426,9.3900585,6.8181944,8.163353,10.00564,15.8622,27.835072,11.0055275,9.172639,2.6195683,6.688647,114.322754,-4.0,8.0,26.0,11.0,5.0,93.0,144.0,124.0,139.0,132.0,202.0,322.0,126.0,158.0,30.0,94.0,1610.0
0.185,L101,-250.0,0.0,-84.0,84.0,-1182.0,2462.0,0.115675956,0.91916835,1.1070321,1.4436396,-0.78185743,0.78288835,3.1470196,0.32253042,1.2844456,1.0821,1.026456,4.918864,5.493727,1.7809118,2.598446,3.6461115,28.887157,-3.0,-2.0,5.0,15.0,1.0,0.0,10.0,-2.0,13.0,13.0,15.0,100.0,65.0,36.0,35.0,54.0,355.0,R101,-21.0,-30.0,-7.0,-31.0,6.0,1107.0,-0.120884605,3.3502357,0.90766317,1.7644256,-0.17236343,8.976312,12.236668,9.2422495,3.2164066,4.0069466,9.742009,22.134436,4.5953608,5.1031837,1.0157061,4.192791,90.19115,9.0,33.0,26.0,29.0,21.0,124.0,189.0,162.0,73.0,40.0,126.0,276.0,64.0,99.0,10.0,44.0,1325.0
0.217,L101,-143.0,101.0,-4.0,-303.0,495.0,674.0,0.115675956,0.87324756,1.1965274,1.6694453,-0.60164267,0.64866316,3.1185477,0.32253042,1.1664679,2.9142385,1.0575255,5.4006705,10.128521,2.4076362,6.827025,5.5901785,42.835262,-3.0,-3.0,8.0,18.0,4.0,-2.0,9.0,-2.0,25.0,39.0,17.0,108.0,104.0,51.0,92.0,84.0,549.0,R101,-57.0,-69.0,-24.0,-112.0,-56.0,1257.0,3.5462325,4.1571116,3.1948752,3.1692352,0.6980015,5.645242,12.528092,17.087805,1.2908818,2.0218422,2.3877184,6.6383133,2.385478,3.1414633,-0.11332944,1.4621098,69.24108,57.0,45.0,80.0,57.0,31.0,79.0,193.0,262.0,11.0,19.0,37.0,126.0,38.0,64.0,-2.0,19.0,1116.0
0.252,L101,-164.0,117.0,2.0,4.0,49.0,1055.0,0.115675956,0.8282364,1.135938,2.0956562,-0.4325028,0.7159244,3.1470196,0.2836273,1.4394279,5.1750145,1.0575255,5.6505523,16.81652,4.1258044,17.65213,15.970447,75.777,-3.0,-4.0,6.0,24.0,7.0,-1.0,10.0,-4.0,38.0,67.0,17.0,112.0,152.0,92.0,239.0,216.0,968.0,R101,-170.0,-88.0,-78.0,-358.0,-136.0,1839.0,3.4369714,5.3901453,6.2802935,5.116762,-2.320026,1.2666298,8.010716,16.689854,1.5030708,1.694365,0.97752035,3.5373461,2.385478,2.5959473,-0.21597317,0.41608608,56.765186,55.0,62.0,129.0,89.0,3.0,15.0,117.0,258.0,3.0,16.0,5.0,65.0,38.0,53.0,-3.0,12.0,917.0
0.284,L101,-271.0,-24.0,-20.0,-249.0,152.0,2180.0,0.115675956,0.9659907,1.2941169,2.4270191,-0.7205044,0.7159244,3.2044446,0.32253042,1.9182317,7.5911307,1.8756841,6.2360935,46.479397,17.418165,10.526134,10.533155,110.90319,-3.0,-1.0,11.0,29.0,2.0,-1.0,12.0,-2.0,49.0,97.0,38.0,121.0,316.0,262.0,147.0,152.0,1229.0,R101,-277.0,-80.0,-133.0,-540.0,-68.0,2045.0,2.4914122,5.0855436,6.8118086,7.0009136,-2.7640522,0.5332616,4.7730107,5.933435,1.5030708,1.3539933,0.9480702,2.54837,2.7062116,1.9069545,-0.11332944,-0.24757458,40.471104,40.0,58.0,137.0,116.0,0.0,4.0,29.0,110.0,3.0,13.0,3.0,43.0,42.0,38.0,-2.0,8.0,642.0
0.316,L101,4.0,-1.0,-3.0,16.0,2.0,1236.0,0.14972906,0.9659907,1.2607138,2.490893,-0.60164267,1.0479956,3.1470196,0.30264163,2.1946344,10.679251,4.547586,8.28085,65.93999,18.31078,10.526134,9.307605,138.55017,-2.0,-1.0,10.0,30.0,4.0,4.0,10.0,-3.0,54.0,138.0,73.0,149.0,396.0,270.0,147.0,136.0,1415.0,R101,-332.0,-74.0,-175.0,-286.0,101.0,2351.0,2.0490227,2.9469428,2.9108396,2.3786235,-2.7640522,0.3338313,4.4738617,1.4825194,1.4680909,1.4689251,0.9274927,2.1283307,2.5449398,2.406034,-0.21597317,-0.42141443,24.118011,34.0,27.0,75.0,42.0,0.0,1.0,18.0,34.0,4.0,14.0,1.0,35.0,40.0,49.0,-3.0,7.0,378.0
0.350,L101,4.0,-5.0,-1.0,12.0,13.0,1005.0,0.18552329,0.91916835,1.2941169,2.4270191,-0.66044307,0.78288835,3.0340843,0.30264163,5.871891,12.91725,5.5644565,7.813158,69.2965,16.4392,11.9942045,10.222817,148.40448,-1.0,-2.0,11.0,29.0,3.0,0.0,6.0,-3.0,102.0,169.0,84.0,143.0,408.0,253.0,168.0,148.0,1518.0,R101,-358.0,-163.0,-184.0,-460.0,383.0,2483.0,0.34307277,2.6019106,2.026358,1.5469275,-2.7640522,0.5332616,4.1688595,0.5802484,1.405584,-0.15037605,0.9206464,1.9572105,2.5449398,2.5004272,-0.21597317,0.254838,18.253883,14.0,22.0,58.0,24.0,0.0,4.0,6.0,8.0,6.0,1.0,0.0,32.0,40.0,51.0,-3.0,11.0,274.0
0.380,L101,2.0,-2.0,-1.0,11.0,32.0,1003.0,0.18552329,0.9659907,1.3634664,2.5540063,-0.66044307,0.78288835,3.0062442,0.2836273,6.304013,14.692265,6.040345,8.360395,65.122055,15.487216,12.209469,9.91517,146.61223,-1.0,-1.0,13.0,31.0,3.0,0.0,5.0,-4.0,107.0,193.0,89.0,150.0,393.0,244.0,171.0,144.0,1537.0,R101,-99.0,4.0,-12.0,-2019.0,2158.0,388.0,-0.02758699,1.6975665,1.2178265,1.0699425,-2.6130366,0.3338313,4.0718846,0.47855392,1.5405912,-0.015593896,0.9274927,1.9572105,2.1497214,2.406034,-0.21597317,1.0311154,16.009579,10.0,10.0,38.0,12.0,1.0,1.0,2.0,2.0,2.0,2.0,1.0,32.0,35.0,49.0,-3.0,16.0,210.0
0.413,L101,3.0,-4.0,0.0,4.0,36.0,1004.0,0.18552329,0.87324756,1.5119236,2.4270191,-0.48770285,0.9159696,3.0340843,0.32253042,6.651017,15.229604,5.3761363,7.2149305,57.855927,12.704748,11.9942045,8.414599,134.22377,-1.0,-3.0,17.0,29.0,6.0,2.0,6.0,-2.0,111.0,200.0,82.0,135.0,365.0,216.0,168.0,124.0,1455.0,R101,28.0,92.0,107.0,-679.0,1333.0,462.0,0.7071733,1.6148312,0.8562051,0.96101207,-3.2356255,0.3338313,4.0479956,0.49203193,1.5806947,0.24858661,0.9144459,2.4477487,2.072062,2.0845134,0.08753522,1.0311154,16.244156,18.0,9.0,23.0,9.0,-3.0,1.0,1.0,3.0,1.0,4.0,-3.0,41.0,34.0,42.0,0.0,16.0,196.0
0.445,L101,0.0,-5.0,-2.0,9.0,41.0,996.0,0.115675956,0.9659907,1.3634664,2.0268676,-0.60164267,1.0479956,3.0902352,0.36488646,7.4327326,15.4635725,4.4578032,6.5071173,54.925808,10.048448,12.499001,8.048757,127.756714,-3.0,-1.0,13.0,23.0,4.0,4.0,8.0,0.0,120.0,203.0,72.0,125.0,353.0,186.0,175.0,119.0,1401.0,R101,131.0,114.0,114.0,32.0,1144.0,504.0,-0.86649245,1.5306237,0.90766317,0.9968515,-2.7640522,0.5332616,4.0718846,0.47855392,1.5806947,-0.7081114,0.9144459,2.2915606,1.9181497,2.0845134,-0.0121766245,1.0311154,13.988486,1.0,8.0,26.0,10.0,0.0,4.0,2.0,2.0,1.0,-3.0,-3.0,38.0,32.0,42.0,-1.0,16.0,175.0
0.478,L101,0.0,-1.0,0.0,14.0,42.0,992.0,0.115675956,1.1117884,1.4736259,2.2969234,-0.90856284,0.98210907,3.062081,0.34328243,8.038899,16.672754,5.1891766,6.926544,54.686165,10.721951,13.013059,7.8309813,131.55646,-3.0,2.0,16.0,27.0,-1.0,3.0,7.0,-1.0,127.0,218.0,80.0,131.0,352.0,194.0,182.0,116.0,1450.0,R101,183.0,113.0,19.0,381.0,905.0,777.0,-0.774036,1.4448645,0.78924006,0.9256469,-3.0753064,0.2010139,4.0479956,0.46653515,1.5405912,-0.28699034,0.91407496,2.7422721,1.9181497,2.45309,-0.0121766245,0.5742951,13.86926,2.0,7.0,17.0,8.0,-2.0,-1.0,1.0,1.0,2.0,0.0,-2.0,47.0,32.0,50.0,-1.0,13.0,174.0
0.510,L101,-1.0,2.0,1.0,13.0,37.0,996.0,0.115675956,0.9659907,1.5119236,2.2969234,-0.78185743,0.8495664,3.062081,0.32253042,10.58634,17.43491,6.232411,8.12313,53.027386,12.145499,13.236423,8.85842,137.98735,-3.0,-1.0,17.0,27.0,1.0,1.0,7.0,-2.0,157.0,227.0,91.0,147.0,345.0,210.0,185.0,130.0,1539.0,R101,230.0,84.0,-21.0,504.0,577.0,1097.0,-1.0499684,1.5306237,0.8416288,0.96101207,-2.6130366,0.26740894,4.0479956,0.44700068,1.5030708,-0.4254652,0.9274927,2.396417,2.2278454,2.1296027,-0.0121766245,0.5742951,13.753746,-1.0,8.0,22.0,9.0,1.0,0.0,1.0,-1.0,3.0,-1.0,1.0,40.0,36.0,43.0,-1.0,13.0,173.0
0.543,L101,0.0,1.0,1.0,1.0,41.0,1011.0,0.08343187,0.9659907,1.4736259,2.3623683,-0.90856284,0.9159696,3.062081,0.36488646,11.002201,17.871935,8.278443,8.28085,51.170433,13.568653,13.087303,9.383001,140.96259,-4.0,-1.0,16.0,28.0,-1.0,2.0,7.0,0.0,162.0,232.0,112.0,149.0,337.0,225.0,183.0,137.0,1584.0,R101,244.0,85.0,-30.0,309.0,210.0,1422.0,-1.0499684,1.4448645,0.8892476,0.788982,-2.7640522,0.2010139,4.0718846,0.46653515,1.6688238,-0.5658293,0.91615796,2.396417,2.3064318,2.1296027,-0.11332944,0.5742951,13.361075,-1.0,7.0,25.0,4.0,0.0,-1.0,2.0,1.0,-1.0,-2.0,-1.0,40.0,37.0,43.0,-2.0,13.0,164.0
0.577,L101,0.0,0.0,1.0,7.0,34.0,1001.0,0.115675956,1.2133504,1.1965274,2.0956562,-0.90856284,0.98210907,3.0340843,0.36488646,12.569997,18.319447,8.766988,8.68315,50.484364,14.160857,11.497763,9.157271,141.73357,-3.0,4.0,8.0,24.0,-1.0,3.0,6.0,0.0,181.0,237.0,117.0,154.0,334.0,231.0,161.0,134.0,1590.0,R101,238.0,97.0,-39.0,60.0,-56.0,1709.0,-0.95849884,1.4448645,0.94815916,0.89075863,-2.7640522,0.2010139,4.0479956,0.45600685,1.6234243,-0.5658293,0.9274927,2.2379744,2.4649816,2.1296027,0.08753522,1.0311154,14.202545,0.0,7.0,28.0,7.0,0.0,-1.0,1.0,0.0,0.0,-2.0,1.0,37.0,39.0,43.0,0.0,16.0,176.0
0.608,L101,-3.0,3.0,3.0,9.0,35.0,997.0,0.115675956,0.9659907,1.0790735,1.7427802,-0.7205044,1.6313276,2.9236548,0.32253042,13.894647,17.6959,10.315682,10.136457,48.014774,15.591645,10.116811,9.762326,143.58878,-3.0,-1.0,4.0,19.0,2.0,13.0,2.0,-2.0,197.0,230.0,133.0,171.0,323.0,245.0,141.0,142.0,1616.0,R101,225.0,125.0,9.0,41.0,-270.0,1756.0,-0.95849884,1.5306237,0.8892476,0.96101207,-2.7640522,0.2010139,4.000637,0.42943797,1.7678099,-0.8523408,0.9206464,2.2915606,2.072062,2.2665539,-0.0121766245,0.88176733,13.625303,0.0,8.0,25.0,9.0,0.0,-1.0,-1.0,-4.0,-3.0,-4.0,0.0,38.0,34.0,46.0,-1.0,15.0,161.0
0.641,L101,-4.0,3.0,1.0,9.0,33.0,999.0,0.34480792,0.87324756,1.2281787,1.8866427,-0.27362347,2.5167255,3.0340843,0.34328243,14.061967,18.319447,13.298861,13.325363,42.030907,16.65443,7.9708834,8.85842,144.47362,3.0,-3.0,9.0,21.0,10.0,27.0,6.0,-1.0,199.0,237.0,165.0,204.0,295.0,255.0,109.0,130.0,1666.0,R101,195.0,136.0,54.0,133.0,-347.0,1683.0,-1.1408108,1.2683654,0.9701911,0.9256469,-3.0753064,0.26740894,4.000637,0.43368348,1.7169374,-0.7081114,0.9206464,2.597719,2.4649816,2.0845134,0.4729377,1.4621098,14.66155,-2.0,5.0,29.0,8.0,-2.0,0.0,-1.0,-3.0,-2.0,-3.0,0.0,44.0,39.0,42.0,4.0,19.0,177.0
0.673,L101,-7.0,3.0,1.0,5.0,25.0,1000.0,0.18552329,1.0137068,1.1657752,2.0956562,1.3451942,4.613609,3.6249738,0.41060627,12.405311,18.6854,16.053099,19.127625,33.396515,15.383126,6.348321,7.9760213,143.83047,-1.0,0.0,7.0,24.0,54.0,60.0,26.0,2.0,179.0,241.0,196.0,255.0,251.0,243.0,85.0,118.0,1740.0,R101,183.0,119.0,21.0,314.0,-297.0,1732.0,-0.95849884,0.9898924,0.99338055,0.85634995,-3.2356255,0.3338313,4.0718846,0.44700068,1.5405912,-0.8523408,0.9274927,2.54837,2.3064318,2.0845134,0.28283086,1.7356439,14.071749,0.0,2.0,30.0,6.0,-3.0,1.0,2.0,-1.0,2.0,-4.0,1.0,43.0,37.0,42.0,2.0,21.0,181.0
0.705,L101,-9.0,5.0,0.0,4.0,30.0,1005.0,0.18552329,1.1117884,1.399383,2.2969234,2.0317552,11.347437,6.302621,2.3036432,10.335764,18.501518,17.813663,22.596378,20.50001,11.870993,4.7150598,6.067052,139.3795,-1.0,2.0,14.0,27.0,76.0,148.0,96.0,50.0,154.0,239.0,216.0,282.0,176.0,207.0,62.0,91.0,1839.0,R101,190.0,82.0,-28.0,525.0,-444.0,1656.0,-1.1408108,0.5892044,1.155537,0.89075863,-2.7640522,0.068306506,4.0242467,0.44700068,1.6688238,-0.8523408,0.93664944,2.4477487,3.0341156,2.2665539,-0.11332944,2.4935765,15.151989,-2.0,-2.0,36.0,7.0,0.0,-3.0,0.0,-1.0,-1.0,-4.0,2.0,41.0,46.0,46.0,-2.0,27.0,190.0
0.739,L101,-10.0,2.0,1.0,-2.0,23.0,1018.0,2.1113656,1.9541074,2.2692344,3.7343292,1.5253175,9.124889,8.729899,8.897461,10.335764,16.58989,19.714779,23.951889,13.492738,7.01932,2.1721714,4.274434,135.89757,34.0,17.0,34.0,52.0,60.0,122.0,142.0,156.0,154.0,217.0,237.0,292.0,129.0,145.0,30.0,64.0,1885.0,R101,157.0,60.0,-55.0,454.0,-824.0,1466.0,-0.58810455,0.79405826,0.8416288,0.96101207,-2.6130366,0.26740894,4.0242467,0.45600685,1.7169374,-0.7081114,1.061603,2.6464665,3.2846708,1.863263,-0.0121766245,1.7356439,15.731518,4.0,0.0,22.0,9.0,1.0,0.0,0.0,0.0,-2.0,-3.0,9.0,45.0,49.0,37.0,-1.0,21.0,191.0
0.803,L101,-9.0,0.0,8.0,15.0,17.0,1024.0,4.2901387,5.2347794,3.782559,5.7739663,1.5859643,11.707946,8.610835,9.648265,7.1722584,9.278434,13.660171,18.63683,4.7564588,2.6914802,0.7131803,1.6999571,109.243225,68.0,60.0,61.0,95.0,62.0,152.0,140.0,167.0,117.0,119.0,169.0,251.0,58.0,58.0,14.0,20.0,1611.0,R101,-90.0,-47.0,-101.0,448.0,-2627.0,1629.0,0.15836105,0.5892044,0.82838345,0.85634995,-3.0753064,0.3338313,4.0242467,0.45600685,1.405584,0.8789219,1.5852243,3.0627968,7.292188,2.312766,1.2736645,2.4935765,24.475798,12.0,-2.0,21.0,6.0,-2.0,1.0,0.0,0.0,6.0,9.0,23.0,54.0,92.0,47.0,13.0,27.0,307.0
0.835,L101,-111.0,11.0,10.0,15.0,-35.0,1327.0,4.043613,13.572577,14.7247,12.867627,2.46288,15.581812,11.565176,17.518003,1.1995357,0.7412056,1.1748288,4.347464,1.7738748,1.1897804,0.022221994,0.91290903,103.69821,64.0,141.0,213.0,201.0,88.0,192.0,184.0,266.0,17.0,7.0,22.0,90.0,25.0,23.0,7.0,4.0,1544.0,R101,-178.0,-118.0,-40.0,-322.0,731.0,1125.0,-0.95849884,0.48315126,0.9701911,0.85634995,-3.0753064,0.3338313,4.0479956,0.45600685,1.2316191,3.9228933,2.0749316,4.6750493,11.951932,3.7754433,5.4241104,3.5664854,39.736187,0.0,-3.0,29.0,6.0,-2.0,1.0,1.0,0.0,16.0,39.0,32.0,91.0,134.0,76.0,68.0,37.0,525.0
0.868,L101,-216.0,36.0,8.0,-38.0,-38.0,1620.0,4.4723735,14.254724,16.39366,15.30126,0.7198488,9.619232,9.601822,16.944023,1.2844456,0.8501687,1.2706093,4.347464,1.1945887,0.57467,0.42136043,0.95922124,98.20947,71.0,147.0,233.0,228.0,34.0,128.0,156.0,260.0,13.0,9.0,25.0,90.0,17.0,11.0,11.0,5.0,1438.0,R101,-141.0,-123.0,-39.0,-101.0,97.0,1088.0,0.5261351,0.8930551,0.77350503,0.7235645,-3.3991258,0.46675768,4.0479956,0.6018505,1.3042525,5.8674054,2.7248724,5.8272834,16.30431,5.1031837,16.425785,5.870325,64.06116,16.0,1.0,12.0,2.0,-4.0,3.0,1.0,9.0,29.0,65.0,42.0,113.0,168.0,99.0,185.0,71.0,812.0
0.900,L101,-329.0,66.0,27.0,184.0,-81.0,1846.0,4.4118876,12.672853,16.652758,15.582344,0.14933562,4.8766885,6.3490024,10.063028,1.4623692,1.4608864,1.0049974,3.911884,1.6231482,0.8924309,1.2786435,0.7764276,83.16868,70.0,133.0,236.0,231.0,19.0,64.0,97.0,173.0,8.0,19.0,13.0,82.0,23.0,17.0,20.0,1.0,1206.0,R101,-200.0,-125.0,2.0,-352.0,90.0,1546.0,-0.58810455,1.0846632,0.7783516,0.7235645,-3.0753064,0.3338313,4.095915,0.54091585,1.516997,7.8028865,3.6919596,5.8859344,31.655455,12.916967,13.650752,6.974419,87.9892,4.0,3.0,15.0,2.0,-2.0,1.0,3.0,6.0,38.0,96.0,55.0,114.0,263.0,203.0,159.0,105.0,1065.0
0.998,L101,-433.0,5.0,77.0,731.0,-432.0,2562.0,3.4755044,9.210709,9.615842,7.6931696,-0.12420734,4.942918,5.552663,6.8340197,1.6671574,2.1580234,1.0408128,3.4921393,2.6687841,1.6497122,0.9988511,0.91290903,61.789005,55.0,101.0,146.0,131.0,13.0,65.0,79.0,125.0,4.0,29.0,16.0,74.0,36.0,33.0,17.0,4.0,928.0,R101,-7.0,-9.0,0.0,-16.0,16.0,1018.0,0.25089818,0.79405826,0.7830491,1.1448987,-2.9181287,0.068306506,3.977166,0.45600685,1.7977502,13.405301,7.599944,8.675366,49.43958,22.553158,13.340388,7.6588163,129.02657,13.0,0.0,16.0,14.0,-1.0,-3.0,-2.0,0.0,46.0,179.0,101.0,153.0,346.0,295.0,156.0,135.0,1448.0
1.032,L101,-358.0,52.0,146.0,409.0,1681.0,2819.0,0.43324408,1.6531698,1.5908005,2.5540063,-1.109089,1.1136401,3.3806357,0.59584934,2.0083463,0.27855557,0.9935302,3.543858,0.45152625,0.3496027,0.42136043,0.73176587,18.990803,5.0,12.0,19.0,31.0,-4.0,5.0,18.0,9.0,-1.0,-3.0,11.0,75.0,5.0,7.0,11.0,0.0,200.0,R101,-1.0,-3.0,-1.0,-12.0,16.0,1005.0,0.4348344,0.8930551,0.7735506,1.2607844,-3.0753064,0.13464636,4.000637,0.4395487,1.6129763,14.333521,8.20654,10.291263,47.29647,21.708216,13.237416,7.6826725,129.23083,15.0,1.0,13.0,17.0,-2.0,-2.0,-1.0,-2.0,41.0,190.0,108.0,171.0,337.0,288.0,155.0,136.0,1465.0
1.064,L101,203.0,100.0,-110.0,1075.0,2769.0,1008.0,0.115675956,1.1621382,1.399383,1.4436396,-1.109089,1.0479956,3.062081,0.41060627,1.9321578,0.24079579,1.0021396,3.7002428,0.39694083,0.40694413,0.123114325,0.64371467,15.978481,-3.0,3.0,14.0,15.0,-4.0,4.0,7.0,2.0,0.0,-4.0,7.0,78.0,4.0,8.0,8.0,-2.0,137.0,R101,0.0,-1.0,-3.0,-12.0,21.0,998.0,0.25089818,0.692807,0.8059905,1.4216319,-3.0753064,0.068306506,4.0242467,0.45600685,1.7584327,15.227045,9.404451,11.8786,43.620327,20.080597,12.121296,7.588408,126.32373,13.0,-1.0,19.0,21.0,-2.0,-3.0,0.0,0.0,45.0,200.0,122.0,187.0,321.0,274.0,144.0,132.0,1472.0
1.096,L101,339.0,0.0,22.0,548.0,820.0,692.0,0.115675956,0.87324756,1.052079,0.8810291,-0.7205044,0.8495664,2.8964322,0.43469995,2.0083463,0.2047557,1.0575255,4.403184,0.50728446,0.68309057,0.123114325,0.64371467,16.01324,-3.0,-3.0,3.0,8.0,2.0,1.0,1.0,3.0,-1.0,-5.0,17.0,91.0,6.0,13.0,8.0,-2.0,139.0,R101,-2.0,-3.0,-3.0,-21.0,22.0,994.0,0.4348344,0.8930551,0.8416288,1.6326385,-2.6130366,0.13464636,4.000637,0.44700068,3.2795475,14.68516,10.493083,10.675754,40.110348,20.30822,9.710283,7.611697,122.64549,15.0,1.0,22.0,26.0,1.0,-2.0,-1.0,-1.0,74.0,194.0,135.0,175.0,305.0,276.0,119.0,133.0,1472.0
1.129,L101,395.0,-13.0,-27.0,371.0,298.0,1194.0,0.115675956,0.8282364,0.9770462,0.7105949,-0.9739776,1.6313276,2.8964322,0.36488646,2.0886557,0.27855557,1.0230237,4.347464,0.5642031,0.4635567,0.42136043,0.73176587,16.468807,-3.0,-4.0,0.0,6.0,-2.0,13.0,1.0,0.0,-2.0,-3.0,5.0,90.0,7.0,9.0,11.0,0.0,128.0,R101,-3.0,-5.0,-2.0,-15.0,23.0,999.0,-0.3078242,0.79405826,0.82838345,1.5047237,-2.9181287,0.13464636,4.0242467,0.5802484,5.391462,15.227045,10.160727,12.611231,35.747925,18.315153,9.43394,7.706742,119.23457,7.0,0.0,21.0,23.0,-1.0,-2.0,0.0,8.0,104.0,200.0,131.0,194.0,284.0,258.0,116.0,137.0,1480.0
1.160,L101,368.0,-97.0,-86.0,697.0,-206.0,1427.0,0.18552329,0.87324756,1.1070321,0.53566635,-0.78185743,1.695256,2.869362,0.36488646,2.0886557,0.2047557,1.0111572,4.7440224,1.2634943,0.4635567,0.22326112,0.86700326,17.715021,-1.0,-3.0,5.0,4.0,1.0,14.0,0.0,0.0,-2.0,-5.0,6.0,97.0,18.0,9.0,9.0,3.0,155.0,R101,-2.0,-6.0,-2.0,-12.0,16.0,1000.0,0.34307277,1.0846632,0.82838345,0.96101207,-2.9181287,0.40028092,4.3441553,2.454258,7.1902905,13.90463,9.489053,16.995409,32.990067,16.846981,9.43394,7.4967513,121.84481,14.0,3.0,21.0,9.0,-1.0,2.0,13.0,53.0,127.0,185.0,123.0,233.0,270.0,244.0,116.0,128.0,1540.0
1.194,L101,338.0,-138.0,-109.0,633.0,-320.0,1986.0,0.053066228,0.91916835,1.135938,0.7105949,-0.78185743,0.7159244,2.869362,0.34328243,2.0886557,0.3179901,1.0021396,4.0191665,1.3334224,0.29151344,0.322673,0.86700326,16.208042,-5.0,-2.0,6.0,6.0,1.0,-1.0,0.0,-1.0,-2.0,-2.0,7.0,84.0,19.0,6.0,10.0,3.0,129.0,R101,-2.0,-5.0,-2.0,-10.0,17.0,1000.0,-0.21431808,0.8930551,1.0431386,0.96101207,-2.9181287,2.0036645,5.213436,6.6917396,8.739457,13.001677,11.314043,21.046003,27.125452,14.960243,8.011224,7.4068446,125.27854,8.0,1.0,32.0,9.0,-1.0,26.0,44.0,122.0,146.0,174.0,145.0,267.0,238.0,225.0,100.0,124.0,1660.0
1.291,L101,231.0,-175.0,-46.0,-414.0,-1792.0,2611.0,0.115675956,0.87324756,0.95407593,0.35614976,-0.8445332,1.3092263,2.869362,0.34328243,2.0886557,0.27855557,1.026456,4.403184,1.6980313,0.7363365,0.322673,0.91290903,17.443289,-3.0,-3.0,-1.0,2.0,0.0,8.0,0.0,-1.0,-2.0,-3.0,15.0,91.0,24.0,14.0,10.0,4.0,155.0,R101,-2.0,-5.0,-3.0,-12.0,12.0,1000.0,-0.86649245,0.79405826,0.8059905,0.788982,-1.638215,3.2880745,6.330728,7.768149,9.405143,12.843334,13.949367,22.377075,21.849792,13.096725,6.276805,7.2286077,124.29812,1.0,0.0,19.0,4.0,8.0,45.0,77.0,139.0,154.0,172.0,178.0,278.0,206.0,205.0,79.0,116.0,1681.0
1.323,L101,150.0,-15.0,-8.0,-1033.0,-2846.0,1824.0,0.14972906,0.8282364,1.135938,0.53566635,-0.48770285,0.78288835,3.1185477,0.34328243,2.0083463,0.3179901,1.0408128,3.9653978,1.6980313,0.7363365,0.5193339,0.82150817,17.514343,-2.0,-4.0,6.0,4.0,6.0,0.0,9.0,-1.0,-1.0,-2.0,16.0,83.0,24.0,14.0,12.0,2.0,166.0,R101,-4.0,-7.0,-7.0,-14.0,5.0,1004.0,-0.02758699,0.79405826,0.8416288,0.96101207,-1.2622584,5.929709,8.105545,7.071194,10.333659,12.922286,16.847404,24.699291,15.230571,11.605696,4.0881414,7.0924263,125.23277,10.0,0.0,22.0,9.0,11.0,83.0,119.0,128.0,165.0,173.0,214.0,297.0,160.0,188.0,50.0,110.0,1739.0
1.356,L101,18.0,14.0,-6.0,-522.0,-3256.0,1069.0,0.115675956,0.91916835,1.135938,0.7963677,-0.4325028,0.64866316,3.062081,0.34328243,1.8600168,0.27855557,1.0575255,4.347464,1.9284034,0.9433062,0.22326112,1.0059359,18.233143,-3.0,-2.0,6.0,7.0,7.0,-2.0,7.0,-1.0,1.0,-3.0,17.0,90.0,27.0,18.0,9.0,6.0,184.0,R101,-7.0,-10.0,-9.0,-6.0,9.0,1019.0,0.06551421,2.2417529,0.8720865,1.1448987,0.28769568,8.666637,9.613688,7.071194,7.6744123,11.493822,17.098759,26.314072,9.8621855,9.172639,2.3925955,6.631311,120.60325,11.0,17.0,24.0,14.0,26.0,120.0,148.0,128.0,133.0,154.0,217.0,310.0,116.0,158.0,27.0,92.0,1695.0
1.388,L101,-277.0,115.0,-44.0,-392.0,-1197.0,598.0,0.115675956,0.87324756,0.9770462,0.7105949,-0.4325028,0.9159696,3.2044446,0.34328243,1.2162255,2.085243,1.0049974,4.7440224,7.4114075,2.1198869,4.641211,3.401055,33.331806,-3.0,-3.0,0.0,6.0,7.0,2.0,12.0,-1.0,16.0,28.0,13.0,97.0,82.0,44.0,61.0,50.0,411.0,R101,-29.0,-19.0,-5.0,-8.0,-8.0,1078.0,4.6045194,4.3643737,2.1226606,3.0590062,2.7646146,12.885234,10.625089,17.599245,1.5476893,2.4395688,7.599944,15.260659,3.453884,3.5596178,0.8390317,2.1260629,94.85119,81.0,48.0,60.0,55.0,71.0,171.0,165.0,267.0,39.0,23.0,101.0,218.0,51.0,72.0,8.0,24.0,1454.0
1.421,L101,-171.0,123.0,-1.0,-414.0,304.0,726.0,0.115675956,0.7841428,0.95407593,0.7105949,-0.4325028,0.9159696,2.869362,0.30264163,1.1840464,3.7880456,1.2047257,4.8019643,11.307914,2.5700607,11.008734,5.6578174,47.743267,-3.0,-5.0,-1.0,6.0,7.0,2.0,0.0,-3.0,27.0,50.0,23.0,98.0,113.0,55.0,154.0,85.0,608.0,R101,-102.0,-50.0,-11.0,55.0,-60.0,1640.0,4.6761584,4.863565,6.2802935,5.653608,3.2617986,10.822135,9.280201,28.026217,1.2316191,2.0218422,2.3877184,4.628091,2.7062116,2.8396797,0.18585505,0.729508,89.5945,83.0,55.0,129.0,97.0,86.0,147.0,142.0,345.0,16.0,19.0,37.0,90.0,42.0,58.0,1.0,14.0,1361.0
1.456,L101,-198.0,146.0,1.0,-87.0,35.0,1641.0,0.053066228,0.8282364,1.0010482,1.0470686,-0.9739776,1.2442449,3.062081,0.30264163,1.6328622,6.557431,1.3443327,6.103107,31.186981,9.480735,11.217472,10.611171,84.6985,-5.0,-4.0,1.0,10.0,-2.0,7.0,7.0,-3.0,43.0,84.0,27.0,119.0,239.0,179.0,157.0,153.0,1012.0,R101,-307.0,-67.0,-52.0,-156.0,-21.0,1961.0,4.6405706,7.3649597,10.666616,8.28754,-2.320026,0.93285894,5.795915,11.400306,1.5030708,2.0218422,0.9274927,2.6946414,3.0341156,1.9509249,-0.21597317,-0.5985127,58.08634,82.0,85.0,193.0,133.0,3.0,10.0,62.0,194.0,3.0,19.0,1.0,46.0,46.0,39.0,-3.0,6.0,919.0
1.488,L101,-217.0,69.0,-12.0,-217.0,24.0,1670.0,0.08343187,0.91916835,1.0010482,1.208818,-1.109089,1.179053,3.1185477,0.30264163,1.6765945,10.094572,5.0037165,7.813158,60.892273,20.874947,9.845797,9.991835,132.89651,-4.0,-2.0,1.0,12.0,-4.0,6.0,9.0,-3.0,44.0,130.0,78.0,143.0,377.0,292.0,137.0,145.0,1361.0,R101,-388.0,-26.0,-91.0,-329.0,-320.0,2751.0,4.567982,3.9528904,5.427436,3.566203,-2.9181287,0.79954964,4.7730107,4.2381916,1.6234243,2.2333262,0.97752035,2.183575,3.797476,1.8198502,-0.32015872,0.09050758,36.812656,80.0,42.0,116.0,64.0,-1.0,8.0,29.0,83.0,0.0,21.0,5.0,36.0,55.0,36.0,-4.0,10.0,580.0
1.521,L101,1.0,0.0,-2.0,-2.0,-10.0,1039.0,0.34480792,0.87324756,1.052079,1.9572018,-1.0408092,0.9159696,2.9236548,0.2836273,6.304013,11.547133,8.082766,9.522077,61.92955,21.480679,10.184785,11.803476,148.16426,3.0,-3.0,3.0,22.0,-3.0,2.0,2.0,-4.0,107.0,150.0,110.0,164.0,381.0,297.0,142.0,168.0,1541.0,R101,-470.0,-104.0,-95.0,-37.0,205.0,3411.0,3.1469624,2.741349,2.4771082,2.230824,-3.0753064,0.40028092,4.318669,0.6487849,1.4680909,0.75618774,0.91615796,1.6521019,2.6253507,2.1296027,-0.21597317,0.5742951,22.794485,50.0,24.0,67.0,39.0,-2.0,2.0,12.0,11.0,4.0,8.0,-1.0,27.0,41.0,43.0,-3.0,13.0,335.0
1.552,L101,0.0,-1.0,0.0,-15.0,33.0,1009.0,0.18552329,0.7841428,1.135938,2.2306676,-0.9739776,1.1136401,2.8424432,0.32253042,8.81279,13.720598,9.156676,9.870428,60.122746,22.095264,10.457656,12.790134,154.66719,-1.0,-5.0,6.0,26.0,-2.0,5.0,-1.0,-2.0,136.0,180.0,121.0,168.0,374.0,302.0,146.0,180.0,1633.0,R101,-365.0,-181.0,-14.0,-546.0,3058.0,-172.0,0.8858494,1.9377016,0.99338055,0.9256469,-3.2356255,0.3338313,4.1200867,0.5069384,1.6234243,0.5057741,0.91407496,2.7422721,2.787521,2.2206228,0.08753522,0.09050758,17.439543,20.0,13.0,30.0,8.0,-3.0,1.0,4.0,4.0,0.0,6.0,-2.0,47.0,43.0,45.0,0.0,10.0,226.0
1.584,L101,0.0,0.0,0.0,-8.0,36.0,1000.0,0.115675956,0.87324756,1.135938,1.9572018,-1.0408092,1.4385979,2.9236548,0.32253042,9.069017,13.500159,9.931336,11.623376,53.49802,19.806345,10.048928,11.083013,146.28622,-3.0,-3.0,6.0,22.0,-3.0,10.0,2.0,-2.0,139.0,177.0,129.0,187.0,347.0,283.0,140.0,159.0,1590.0,R101,52.0,10.0,106.0,-635.0,1887.0,797.0,0.25089818,1.6975665,0.8164951,0.85634995,-2.6130366,0.3338313,4.1444016,0.44700068,1.7169374,-0.015593896,0.9144459,2.4983895,1.9948707,2.2206228,-0.11332944,0.729508,15.879356,13.0,10.0,20.0,6.0,1.0,1.0,5.0,-1.0,-2.0,2.0,-3.0,42.0,33.0,45.0,-2.0,14.0,184.0
1.681,L101,-4.0,0.0,0.0,-9.0,39.0,995.0,0.14972906,0.91916835,1.1657752,1.8866427,-0.90856284,2.7049298,3.2333996,0.30264163,13.312759,14.616401,13.026315,17.911764,38.194935,12.989415,8.304765,9.082333,136.89241,-2.0,-2.0,7.0,21.0,-1.0,30.0,13.0,-3.0,190.0,192.0,162.0,245.0,276.0,219.0,114.0,133.0,1594.0,R101,197.0,62.0,98.0,-479.0,1408.0,644.0,-0.40133697,1.3574727,0.7735506,0.82242346,-2.7640522,0.2010139,4.0718846,0.46653515,1.7169374,-0.8523408,0.91407496,2.6464665,1.766131,2.1296027,-0.11332944,0.09050758,12.825541,6.0,6.0,13.0,5.0,0.0,-1.0,2.0,1.0,-2.0,-4.0,-2.0,45.0,30.0,43.0,-2.0,10.0,150.0
1.748,L101,-4.0,4.0,0.0,-9.0,31.0,997.0,0.18552329,0.9659907,1.2941169,2.2969234,2.169281,4.613609,4.0126667,0.71829695,11.085135,15.542094,15.173663,20.38054,29.567808,13.568653,7.5021353,8.635849,137.7123,-1.0,-1.0,11.0,27.0,80.0,60.0,38.0,13.0,163.0,204.0,186.0,265.0,230.0,225.0,102.0,127.0,1729.0,R101,276.0,47.0,46.0,-142.0,1004.0,813.0,-1.1408108,1.1774578,0.7783516,0.7235645,-2.6130366,0.40028092,4.0718846,0.47855392,1.6688238,-0.28699034,0.91615796,2.597719,1.9181497,2.1296027,-0.11332944,-0.5985127,12.107866,-2.0,4.0,15.0,2.0,1.0,2.0,2.0,2.0,-1.0,0.0,-1.0,44.0,32.0,43.0,-2.0,6.0,147.0
1.780,L101,-5.0,3.0,0.0,-13.0,29.0,1003.0,0.18552329,0.91916835,1.3283728,2.5540063,1.9982185,8.72136,5.1437845,1.76005,8.297662,16.261824,16.491863,21.540005,21.134647,12.799267,6.348321,8.121636,133.60571,-1.0,-2.0,12.0,31.0,75.0,117.0,69.0,39.0,130.0,213.0,201.0,274.0,180.0,217.0,85.0,120.0,1760.0,R101,344.0,138.0,-30.0,-148.0,-150.0,2390.0,-1.0499684,0.8930551,0.7830491,0.7235645,-3.0753064,0.5332616,4.0242467,0.4395487,1.7169374,-0.5658293,0.91615796,2.3443644,2.1497214,1.7767159,-0.0121766245,1.1775941,12.774937,-1.0,1.0,16.0,2.0,-2.0,4.0,0.0,-2.0,-2.0,-2.0,-1.0,39.0,35.0,35.0,-1.0,17.0,138.0
1.811,L101,-8.0,0.0,1.0,-16.0,21.0,1009.0,1.4158595,1.3183308,1.5908005,3.2030063,1.7089458,11.347437,8.911019,8.627138,6.564198,14.540745,19.34534,22.329983,12.660659,7.622569,2.0853581,5.321296,128.59268,23.0,6.0,19.0,42.0,66.0,148.0,145.0,152.0,110.0,191.0,233.0,280.0,123.0,154.0,29.0,80.0,1801.0,R101,343.0,187.0,-19.0,-215.0,-341.0,2713.0,-1.1408108,0.79405826,0.7750686,0.69159395,-2.6130366,0.5332616,4.0718846,0.5069384,1.7169374,-0.5658293,0.9144459,2.0722098,2.3064318,1.9509249,-0.11332944,0.729508,12.630258,-2.0,0.0,11.0,1.0,1.0,4.0,2.0,4.0,-2.0,-2.0,-3.0,34.0,37.0,39.0,-2.0,14.0,136.0
1.911,L101,-12.0,11.0,4.0,-16.0,12.0,1026.0,4.7116933,4.6273603,2.6308188,3.9352038,1.9982185,13.008516,9.666761,9.169162,3.411361,7.4337964,12.843838,17.435839,3.8581483,2.5700607,0.9988511,1.3438697,99.6435,75.0,53.0,41.0,56.0,75.0,166.0,157.0,160.0,72.0,95.0,160.0,241.0,49.0,55.0,17.0,13.0,1485.0,R101,161.0,85.0,40.0,1494.0,-3578.0,2098.0,-1.2309331,0.48315126,0.7830491,0.82242346,-3.2356255,0.5997927,4.0242467,0.4395487,1.6688238,-0.28699034,1.1155406,2.8821821,3.6248229,1.6912804,0.08753522,0.729508,14.198357,-3.0,-3.0,16.0,5.0,-3.0,5.0,0.0,-2.0,-1.0,0.0,11.0,50.0,53.0,33.0,0.0,14.0,175.0
1.942,L101,-113.0,30.0,2.0,-55.0,-52.0,963.0,4.2288814,9.629508,11.088156,9.247659,3.0036469,19.139488,14.680804,16.026001,1.2111034,1.0821,1.3443327,4.6291323,1.6980313,0.99363226,0.22326112,0.95922124,99.18495,67.0,105.0,166.0,155.0,101.0,225.0,221.0,250.0,29.0,13.0,27.0,95.0,24.0,19.0,9.0,5.0,1511.0,R101,-9.0,24.0,-5.0,638.0,-4248.0,1280.0,-1.1408108,0.692807,0.7830491,0.9256469,-3.3991258,0.40028092,4.0718846,0.4395487,1.6234243,-0.7081114,1.2455392,2.9279172,5.5214853,1.9069545,0.7491641,1.8683945,17.908049,-2.0,-1.0,16.0,8.0,-4.0,2.0,2.0,-2.0,0.0,-3.0,15.0,51.0,74.0,38.0,7.0,22.0,223.0
1.976,L101,-175.0,21.0,4.0,-55.0,-62.0,1539.0,4.1056147,11.6753845,14.48209,12.438542,2.2045653,16.519772,15.838275,18.414597,1.1857711,0.7412056,1.0575255,3.543858,1.4763035,0.4635567,0.42136043,1.1005566,105.668976,65.0,124.0,210.0,196.0,81.0,201.0,233.0,275.0,18.0,7.0,17.0,75.0,21.0,9.0,11.0,8.0,1551.0,R101,-309.0,-96.0,56.0,253.0,702.0,761.0,-1.4086262,0.5892044,0.82838345,0.75602806,-3.2356255,0.7329366,3.977166,0.45600685,1.2747478,5.098818,2.1353674,4.353835,10.42841,4.2774434,4.675206,3.5664854,38.505787,-5.0,-2.0,21.0,3.0,-3.0,7.0,-2.0,0.0,12.0,54.0,33.0,84.0,121.0,85.0,58.0,37.0,503.0
2.007,L101,-431.0,32.0,61.0,489.0,-209.0,2086.0,4.351142,10.695339,15.298134,14.745044,-0.54407275,6.1713905,6.827415,7.8902287,1.2162255,2.3053195,0.99591917,2.9842904,3.0203023,1.1414834,1.5528215,0.95922124,79.61021,69.0,115.0,220.0,222.0,5.0,83.0,107.0,141.0,16.0,31.0,8.0,64.0,40.0,22.0,23.0,5.0,1171.0,R101,-213.0,-167.0,0.0,381.0,-321.0,1000.0,-1.3202382,0.9898924,0.7830491,0.59866744,-3.2356255,0.3338313,4.0479956,0.54091585,1.2231205,5.732319,2.794924,6.1883717,15.098552,5.4736714,17.08686,6.3795905,62.715897,-4.0,2.0,16.0,-2.0,-3.0,1.0,1.0,6.0,21.0,63.0,43.0,119.0,159.0,105.0,191.0,84.0,802.0
2.075,L101,-549.0,-2.0,150.0,427.0,-12.0,3891.0,0.9453843,2.4070313,2.8482006,3.631664,-1.0408092,3.395999,3.8805258,1.1905099,2.0083463,0.5387615,1.0111572,2.7847831,1.059888,0.3496027,0.5193339,0.7764276,26.30681,15.0,24.0,45.0,50.0,-3.0,41.0,34.0,26.0,-1.0,3.0,6.0,60.0,15.0,7.0,12.0,1.0,335.0,R101,-244.0,-150.0,-10.0,-104.0,44.0,1736.0,-1.1408108,0.8930551,0.82838345,0.69159395,-2.4650414,0.5332616,4.0479956,0.7005093,1.4596487,8.10198,3.1568682,5.9451904,35.14693,14.294162,15.233684,7.27327,94.700676,-2.0,1.0,21.0,1.0,2.0,4.0,1.0,13.0,36.0,101.0,48.0,115.0,281.0,218.0,174.0,118.0,1132.0
2.106,L101,-342.0,243.0,33.0,16.0,3142.0,-97.0,0.14972906,0.8282364,1.2941169,0.96459174,-1.0408092,0.9159696,3.3806357,0.5670702,2.0886557,0.27855557,0.99799067,3.1856108,1.5492356,-0.13767837,0.123114325,0.64371467,15.78874,-2.0,-4.0,11.0,9.0,-3.0,2.0,18.0,8.0,-2.0,-3.0,12.0,68.0,22.0,-1.0,8.0,-2.0,141.0,R101,-12.0,-8.0,0.0,-6.0,-10.0,1057.0,-1.2309331,0.79405826,0.7968964,1.1830697,-3.0753064,0.2010139,4.0242467,0.45600685,1.8797586,15.598035,7.5130076,10.871206,55.432423,24.439034,13.340388,7.830722,140.05362,-3.0,0.0,18.0,15.0,-2.0,-1.0,0.0,0.0,48.0,204.0,100.0,177.0,370.0,310.0,156.0,142.0,1534.0
2.138,L101,379.0,82.0,-75.0,792.0,1657.0,1451.0,0.14972906,0.91916835,1.1965274,1.4436396,-1.1788492,0.58109325,3.1470196,0.48530015,2.1731606,0.3179901,0.9924446,3.2362866,1.4763035,-0.010825335,0.22326112,0.6875268,15.839776,-2.0,-2.0,8.0,15.0,-5.0,-3.0,10.0,5.0,-3.0,-2.0,9.0,69.0,21.0,1.0,9.0,-1.0,129.0,R101,-1.0,-1.0,-1.0,-18.0,4.0,1003.0,0.34307277,0.79405826,0.8164951,1.1071887,-3.2356255,0.26740894,3.977166,0.4395487,3.2164066,15.598035,8.292852,12.611231,53.895134,22.309546,13.340388,7.934959,141.70786,14.0,0.0,20.0,13.0,-3.0,0.0,-2.0,-2.0,73.0,204.0,109.0,194.0,364.0,293.0,156.0,146.0,1579.0
2.172,L101,344.0,-16.0,8.0,779.0,570.0,872.0,0.115675956,0.8282364,1.0260649,0.8810291,-1.0408092,0.64866316,3.1185477,0.38733146,2.1731606,0.40170717,0.99591917,3.3892727,1.8506688,0.40694413,0.22326112,0.60033345,16.006006,-3.0,-4.0,2.0,8.0,-3.0,-2.0,9.0,1.0,-3.0,0.0,8.0,72.0,26.0,8.0,9.0,-3.0,125.0,R101,0.0,0.0,-2.0,-15.0,13.0,997.0,0.25089818,0.692807,0.7783516,1.1830697,-3.0753064,0.068306506,3.9538326,0.45600685,4.432389,16.758385,8.894004,10.871206,47.061737,19.407156,12.624782,7.565282,131.9229,13.0,-1.0,15.0,15.0,-2.0,-3.0,-3.0,0.0,91.0,216.0,116.0,177.0,336.0,268.0,149.0,131.0,1518.0
2.267,L101,398.0,-91.0,-19.0,338.0,147.0,1254.0,0.34480792,0.87324756,1.1070321,0.7963677,-0.9739776,0.58109325,3.0902352,0.41060627,2.0886557,0.3179901,0.9924446,4.0731955,1.5492356,0.29151344,-0.07942656,0.7764276,16.239449,3.0,-3.0,5.0,7.0,-2.0,-3.0,8.0,2.0,-2.0,-2.0,9.0,85.0,22.0,6.0,6.0,1.0,142.0,R101,0.0,1.0,-6.0,-12.0,15.0,998.0,0.34307277,0.8930551,0.78924006,1.0331625,-2.7640522,0.068306506,3.977166,0.45600685,5.5434155,16.363657,8.979406,10.008689,41.407444,17.46779,10.844336,7.451635,122.862335,14.0,1.0,17.0,11.0,0.0,-3.0,-2.0,0.0,106.0,212.0,117.0,168.0,311.0,250.0,131.0,126.0,1459.0
2.303,L101,370.0,-155.0,-7.0,94.0,71.0,1657.0,0.115675956,0.91916835,1.1657752,0.53566635,-0.9739776,0.58109325,2.9785597,0.36488646,2.1731606,0.3590551,0.99591917,3.911884,1.4043623,0.17301486,0.022221994,0.6875268,15.413993,-3.0,-2.0,7.0,4.0,-2.0,-3.0,4.0,0.0,-3.0,-1.0,8.0,82.0,20.0,4.0,7.0,-1.0,121.0,R101,-2.0,-8.0,-3.0,-14.0,7.0,1002.0,-0.58810455,0.9898924,0.7735506,0.788982,-2.0387714,1.7351843,4.7450085,4.862376,9.572795,13.820255,10.077273,20.804884,24.251316,12.827527,8.800771,7.451635,118.87459,4.0,2.0,13.0,4.0,5.0,22.0,28.0,93.0,156.0,184.0,130.0,265.0,221.0,202.0,109.0,126.0,1564.0
2.331,L101,374.0,-165.0,15.0,2.0,130.0,2241.0,0.43324408,0.8282364,1.1965274,0.6236984,-0.90856284,0.64866316,3.0902352,0.41060627,2.0083463,0.40170717,1.0230237,4.403184,1.4043623,0.23265727,0.22326112,0.7764276,16.79562,5.0,-4.0,8.0,5.0,-1.0,-2.0,8.0,2.0,-1.0,0.0,5.0,91.0,20.0,5.0,9.0,1.0,151.0,R101,-2.0,-7.0,-6.0,-12.0,5.0,1002.0,0.06551421,0.692807,0.7830491,0.82242346,-1.2622584,3.2880745,5.899135,8.213456,9.488906,13.487376,13.791268,22.377075,17.974693,12.035616,5.80745,7.2286077,120.69319,11.0,-1.0,16.0,5.0,11.0,45.0,65.0,146.0,155.0,180.0,176.0,278.0,180.0,193.0,73.0,116.0,1649.0
2.363,L101,352.0,-183.0,7.0,-159.0,-532.0,2946.0,0.08343187,0.87324756,1.1070321,0.8810291,-0.9739776,1.1136401,3.1185477,0.41060627,2.1731606,0.3179901,0.99591917,3.8055937,1.4763035,0.23265727,0.22326112,0.7764276,16.61487,-4.0,-3.0,5.0,8.0,-2.0,5.0,9.0,2.0,-3.0,-2.0,8.0,80.0,21.0,5.0,9.0,1.0,139.0,R101,-5.0,-10.0,-26.0,-29.0,-24.0,1010.0,0.5261351,0.8930551,0.8164951,1.0699425,-1.1422131,4.6628733,7.9169965,8.789725,8.491825,12.531859,16.515682,24.699291,12.803698,10.520824,4.307445,6.8499293,120.25356,16.0,1.0,20.0,12.0,12.0,65.0,115.0,155.0,143.0,168.0,210.0,297.0,141.0,175.0,53.0,100.0,1683.0
2.397,L101,316.0,-200.0,-38.0,-533.0,-1450.0,3124.0,0.115675956,0.87324756,0.9770462,0.4464872,-0.78185743,1.0479956,3.1185477,0.48530015,2.1731606,0.3179901,0.9924446,3.5957768,1.4043623,0.29151344,0.6166038,0.73176587,16.406061,-3.0,-3.0,0.0,3.0,1.0,4.0,9.0,5.0,-3.0,-2.0,9.0,76.0,20.0,6.0,13.0,0.0,135.0,R101,-10.0,-15.0,-18.0,-8.0,27.0,1020.0,-0.120884605,2.5313163,1.155537,1.3003229,0.017956518,7.457032,9.842645,9.3724375,6.55323,9.561497,16.269196,26.314072,7.9120765,8.268412,1.6060321,6.16229,114.20317,9.0,21.0,36.0,18.0,23.0,104.0,152.0,164.0,119.0,125.0,207.0,310.0,98.0,146.0,17.0,78.0,1627.0
2.430,L101,225.0,-74.0,-58.0,-1504.0,-3074.0,2395.0,0.14972906,0.8282364,1.0260649,0.53566635,-0.90856284,1.0479956,3.1470196,0.41060627,1.8600168,0.3179901,1.0111572,4.1820602,1.1945887,0.4635567,0.022221994,0.82150817,16.109854,-2.0,-4.0,2.0,4.0,-1.0,4.0,10.0,2.0,1.0,-2.0,6.0,87.0,17.0,9.0,7.0,2.0,142.0,R101,-22.0,-22.0,-7.0,5.0,10.0,1053.0,3.0240164,4.020673,0.9273085,2.3786235,1.5096245,9.844592,12.022557,16.016373,3.804797,5.2435646,12.522199,23.472809,4.868853,5.662629,0.5661601,4.27472,110.1595,48.0,43.0,27.0,42.0,43.0,135.0,186.0,251.0,82.0,56.0,160.0,287.0,67.0,108.0,5.0,45.0,1585.0
2.462,L101,35.0,3.0,-36.0,-814.0,-4319.0,1112.0,0.115675956,0.87324756,1.0260649,0.53566635,-0.9739776,1.1136401,3.1185477,0.36488646,1.7918508,0.3590551,0.9935302,4.347464,1.6980313,0.57467,0.22326112,0.82150817,16.983122,-3.0,-3.0,2.0,4.0,-2.0,5.0,9.0,0.0,2.0,-1.0,11.0,90.0,24.0,11.0,9.0,2.0,160.0,R101,-39.0,-33.0,-9.0,-32.0,-26.0,1138.0,4.9468446,4.1571116,2.5297706,3.2248878,3.0025,11.493016,12.236668,29.400703,1.2499111,1.9140744,4.9186883,10.291263,3.0341156,2.5959473,-0.11332944,0.88176733,95.76394,91.0,45.0,68.0,58.0,78.0,155.0,189.0,353.0,25.0,18.0,70.0,171.0,46.0,53.0,-2.0,15.0,1433.0
2.496,L101,-334.0,87.0,-30.0,-399.0,-1591.0,604.0,0.14972906,0.91916835,0.95407593,0.07808286,-0.48770285,0.98210907,3.1470196,0.32253042,1.1614425,3.2281487,0.99591917,4.7440224,9.112167,2.2439432,5.651701,4.0836864,37.28604,-2.0,-2.0,-1.0,-1.0,6.0,3.0,10.0,-2.0,21.0,43.0,8.0,97.0,96.0,47.0,75.0,61.0,459.0,R101,-145.0,-70.0,-20.0,-25.0,-61.0,1733.0,4.3373513,4.9369726,6.2802935,5.315883,1.7345188,7.605852,11.402442,39.330227,1.4680909,1.1195782,1.3209583,4.353835,2.385478,2.0845134,-0.0121766245,-0.24757458,93.416245,74.0,56.0,129.0,92.0,47.0,106.0,177.0,402.0,4.0,11.0,17.0,84.0,38.0,42.0,-1.0,8.0,1286.0
2.527,L101,-166.0,191.0,46.0,-686.0,376.0,958.0,0.14972906,0.8282364,1.0010482,0.6236984,-0.60164267,1.0479956,3.1470196,0.38733146,1.7687734,5.1750145,1.1748288,5.339158,15.05639,3.857712,19.235216,11.083013,69.27352,-2.0,-4.0,1.0,5.0,4.0,4.0,10.0,1.0,46.0,67.0,22.0,107.0,140.0,86.0,256.0,159.0,902.0,R101,-258.0,-95.0,-49.0,-127.0,-90.0,2346.0,4.3373513,5.7859716,9.32648,6.138419,-2.0387714,1.5341839,8.596796,30.292692,1.5030708,0.8789219,0.93664944,2.973247,3.2846708,1.9069545,0.4729377,-0.7789142,75.15066,74.0,67.0,174.0,104.0,5.0,19.0,129.0,358.0,3.0,9.0,2.0,52.0,49.0,38.0,4.0,5.0,1092.0
2.562,L101,-343.0,77.0,-25.0,481.0,-32.0,2138.0,0.115675956,0.7841428,1.0010482,1.1284728,-0.8445332,0.64866316,3.1185477,0.30264163,2.0801985,6.7180758,1.1269534,6.2360935,0.048748445,18.76499,-1.0301001,10.300146,50.499763,-3.0,-5.0,1.0,11.0,0.0,-2.0,9.0,-3.0,52.0,86.0,0.0,121.0,-3.0,274.0,-3.0,149.0,684.0,R101,-408.0,-88.0,-93.0,-487.0,-54.0,2445.0,4.4552407,5.5463953,7.7520638,5.585484,-2.320026,1.668151,5.968968,8.789725,1.5405912,1.8049235,0.9206464,2.1283307,3.797476,1.863263,0.18585505,-0.5985127,49.088577,77.0,64.0,151.0,96.0,3.0,21.0,67.0,155.0,2.0,17.0,0.0,35.0,55.0,37.0,1.0,6.0,787.0
2.593,L101,-25.0,17.0,-5.0,-47.0,-10.0,1818.0,0.08343187,0.87324756,1.0010482,1.1284728,-0.9739776,0.8495664,3.062081,0.38733146,2.1367946,10.168016,5.09625,8.12313,71.32078,26.809347,10.526134,10.846278,151.43794,-4.0,-3.0,1.0,11.0,-2.0,1.0,7.0,1.0,53.0,131.0,79.0,147.0,415.0,338.0,147.0,156.0,1478.0,R101,-457.0,-99.0,-121.0,-124.0,9.0,3242.0,3.2659073,3.6171231,2.8551512,1.6761407,-2.7640522,1.2666298,4.6619825,2.7363286,1.405584,1.9140744,0.9274927,1.7773296,3.1171963,1.9509249,0.4729377,-0.42141443,28.459337,52.0,37.0,74.0,27.0,0.0,15.0,25.0,58.0,6.0,18.0,1.0,29.0,47.0,39.0,4.0,7.0,439.0
2.626,L101,-3.0,0.0,-3.0,2.0,1.0,1017.0,0.115675956,0.87324756,1.135938,2.0956562,-1.0408092,0.78288835,3.0340843,0.34328243,8.038899,11.619169,8.180614,9.436127,64.044044,27.651102,11.147757,12.1289015,159.58658,-3.0,-3.0,6.0,24.0,-3.0,0.0,6.0,-1.0,127.0,151.0,111.0,163.0,389.0,344.0,156.0,172.0,1639.0,R101,-446.0,-307.0,-123.0,-821.0,1902.0,3246.0,0.6169291,2.5313163,1.0972501,0.9968515,-2.6130366,0.79954964,4.0718846,0.6018505,1.4680909,0.11738434,0.9144459,2.4477487,2.9514747,2.312766,0.18585505,1.0311154,19.531477,17.0,21.0,34.0,10.0,1.0,8.0,2.0,9.0,4.0,3.0,-3.0,41.0,45.0,47.0,1.0,16.0,256.0
2.658,L101,0.0,0.0,0.0,7.0,25.0,1005.0,0.14972906,0.87324756,1.2281787,2.490893,-1.0408092,0.78288835,2.9236548,0.32253042,8.727177,12.6278,8.766988,10.680692,56.86784,24.647552,11.008734,11.803476,152.86057,-2.0,-3.0,9.0,30.0,-3.0,0.0,2.0,-2.0,135.0,165.0,117.0,177.0,361.0,322.0,154.0,168.0,1630.0,R101,25.0,29.0,131.0,-1397.0,2213.0,961.0,0.5261351,1.7789066,1.186192,1.0331625,-3.2356255,0.46675768,4.1200867,0.6018505,1.5806947,-0.15037605,0.9144459,2.8360145,3.0341156,2.1296027,0.28283086,0.41608608,17.520882,16.0,11.0,37.0,11.0,-3.0,3.0,4.0,9.0,1.0,1.0,-3.0,49.0,46.0,43.0,2.0,12.0,239.0
2.819,L101,0.0,0.0,0.0,1.0,29.0,1002.0,0.115675956,0.8282364,1.2281787,2.0956562,-1.0408092,0.78288835,2.9236548,0.34328243,9.239309,12.4834175,10.027628,11.914738,46.262276,20.277874,9.57603,10.689362,137.7474,-3.0,-4.0,9.0,24.0,-3.0,0.0,2.0,-1.0,141.0,163.0,130.0,190.0,315.0,287.0,133.0,154.0,1537.0,R101,354.0,102.0,4.0,-73.0,342.0,1418.0,-1.1408108,1.2683654,0.7830491,0.69159395,-3.0753064,0.26740894,4.000637,0.45600685,1.7678099,-0.7081114,0.91407496,2.3443644,2.7062116,1.9951746,0.28283086,-0.42141443,12.131885,-2.0,5.0,16.0,1.0,-2.0,0.0,-1.0,0.0,-3.0,-3.0,-2.0,39.0,42.0,40.0,2.0,7.0,139.0
2.852,L101,-6.0,2.0,0.0,5.0,31.0,997.0,0.14972906,0.87324756,1.1965274,3.631664,-0.3784427,2.8930764,3.3508573,0.32253042,12.322981,12.91725,12.935155,18.515057,26.082163,14.260799,7.4349694,9.383001,125.89056,-2.0,-3.0,8.0,50.0,8.0,33.0,17.0,-2.0,178.0,169.0,161.0,250.0,210.0,232.0,101.0,137.0,1547.0,R101,373.0,137.0,-13.0,10.0,149.0,2001.0,-1.1408108,1.1774578,0.7830491,0.7235645,-2.7640522,0.46675768,4.0242467,0.4395487,1.7678099,-0.7081114,0.91407496,2.4477487,2.787521,1.9509249,0.3785097,-0.07694865,13.171289,-2.0,4.0,16.0,2.0,0.0,3.0,0.0,-2.0,-3.0,-3.0,-2.0,41.0,43.0,39.0,3.0,9.0,148.0
2.885,L101,-5.0,2.0,0.0,-6.0,19.0,1004.0,0.22299235,0.87324756,1.3634664,3.579716,1.9982185,7.707392,6.2106338,8.0235405,8.038899,12.267149,16.404106,22.065128,13.9143505,10.551136,3.4154534,6.6214466,123.25687,0.0,-3.0,13.0,49.0,75.0,104.0,94.0,143.0,127.0,160.0,200.0,278.0,132.0,192.0,45.0,99.0,1708.0,R101,373.0,132.0,-32.0,21.0,-143.0,2519.0,-1.0499684,0.9898924,0.7783516,0.69159395,-3.2356255,0.40028092,4.0242467,0.44700068,1.8214861,-0.7081114,0.91407496,2.4983895,2.9514747,2.0845134,0.18585505,0.09050758,12.883963,-1.0,2.0,15.0,1.0,-3.0,2.0,0.0,-1.0,-4.0,-3.0,-2.0,42.0,45.0,42.0,1.0,10.0,146.0
2.917,L101,-10.0,12.0,2.0,-12.0,8.0,1015.0,4.043613,3.8045368,2.170734,4.322789,0.7198488,11.707946,8.610835,8.694594,1.4746094,7.1172147,12.292516,21.933277,4.5518746,3.857712,1.0927552,2.4613025,98.85616,64.0,43.0,32.0,64.0,34.0,152.0,140.0,153.0,39.0,91.0,154.0,277.0,56.0,86.0,18.0,34.0,1437.0,R101,350.0,164.0,-19.0,-203.0,-634.0,2750.0,-1.0499684,0.8930551,0.8164951,0.66011906,-3.2356255,0.3338313,3.977166,0.45600685,1.6234243,-0.7081114,0.91407496,2.4983895,3.2007153,1.9951746,0.28283086,0.41608608,13.073664,-1.0,1.0,20.0,0.0,-3.0,1.0,-2.0,0.0,0.0,-3.0,-2.0,42.0,48.0,40.0,2.0,12.0,155.0
3.014,L101,-16.0,18.0,0.0,-19.0,1.0,1036.0,5.0627604,5.0587335,3.9674978,6.317114,0.91704494,11.258082,11.118119,13.046499,1.3451027,2.4547694,7.202639,12.913877,2.3308513,1.909679,0.5193339,1.2454054,86.6675,81.0,58.0,64.0,106.0,40.0,147.0,178.0,214.0,35.0,33.0,101.0,200.0,32.0,39.0,12.0,11.0,1351.0,R101,-113.0,79.0,-24.0,-138.0,-3050.0,1274.0,-1.2309331,0.8930551,0.77517587,1.0331625,-3.2356255,0.3338313,4.000637,0.45600685,1.4356092,1.694365,1.5852243,3.4099627,8.122026,3.039741,2.6195683,0.88176733,25.813574,-3.0,1.0,14.0,11.0,-3.0,1.0,-1.0,0.0,5.0,16.0,23.0,62.0,100.0,62.0,30.0,15.0,333.0
3.047,L101,-230.0,22.0,6.0,-34.0,-65.0,1680.0,2.5669734,10.372899,14.643629,16.822096,0.7198488,11.258082,10.756895,17.421066,1.2162255,0.63730115,1.026456,3.5957768,1.4763035,0.57467,0.8090736,0.7764276,94.67373,41.0,112.0,212.0,244.0,34.0,147.0,173.0,265.0,16.0,5.0,15.0,76.0,21.0,11.0,15.0,1.0,1388.0,R101,-234.0,-150.0,66.0,372.0,3453.0,973.0,-1.3202382,0.692807,0.7750686,0.75602806,-3.2356255,0.46675768,4.0479956,0.49203193,1.2316191,4.2538314,2.3230984,4.628091,11.712649,4.051535,5.4241104,3.369534,39.669292,-4.0,-1.0,11.0,3.0,-3.0,3.0,1.0,3.0,16.0,43.0,36.0,90.0,132.0,81.0,68.0,35.0,514.0
3.113,L101,-488.0,-19.0,102.0,806.0,-560.0,2799.0,2.6975994,7.094403,8.531232,8.836267,-0.12420734,5.6163993,6.44255,6.5728903,1.3456658,1.8004907,0.9924446,3.543858,2.2485564,0.99363226,1.5528215,0.91290903,59.057518,43.0,80.0,131.0,149.0,13.0,75.0,99.0,121.0,11.0,24.0,9.0,75.0,31.0,19.0,23.0,4.0,907.0,R101,-222.0,-167.0,56.0,-50.0,-475.0,1277.0,-1.3202382,0.9898924,0.783143,0.59866744,-3.2356255,0.40028092,4.1688595,0.62470526,1.3219043,6.132327,3.2314227,6.705179,19.129122,7.123455,16.97615,6.9255304,70.55478,-4.0,2.0,9.0,-2.0,-3.0,2.0,6.0,10.0,30.0,69.0,49.0,127.0,188.0,130.0,190.0,103.0,906.0
3.145,L101,-552.0,11.0,121.0,-105.0,-197.0,3810.0,1.9823542,3.7253573,3.187299,4.55834,-0.4325028,4.0312257,4.5354605,2.252199,1.9321578,1.3308556,0.99591917,3.4921393,0.92940825,0.7363365,0.9042939,0.7764276,34.937267,32.0,42.0,51.0,69.0,7.0,51.0,53.0,49.0,0.0,17.0,8.0,74.0,13.0,14.0,16.0,1.0,497.0,R101,-30.0,-31.0,5.0,28.0,-60.0,1244.0,-1.1408108,1.1774578,0.90766317,0.85634995,-3.2356255,0.26740894,3.977166,0.4395487,2.199781,16.758385,8.120132,11.268289,57.789402,23.925705,12.726258,7.3845363,143.42165,-2.0,4.0,26.0,6.0,-3.0,0.0,-2.0,-2.0,55.0,216.0,107.0,181.0,379.0,306.0,150.0,123.0,1544.0
3.308,L101,390.0,-18.0,-24.0,176.0,267.0,1050.0,0.115675956,0.91916835,0.9770462,0.53566635,-1.0408092,0.9159696,3.1185477,0.38733146,1.7918508,0.27855557,0.991665,4.403184,1.3334224,0.3496027,-0.07942656,0.6875268,15.684978,-3.0,-2.0,0.0,4.0,-3.0,2.0,9.0,1.0,2.0,-3.0,10.0,91.0,19.0,7.0,6.0,-1.0,139.0,R101,-6.0,0.0,0.0,-12.0,3.0,1010.0,0.06551421,0.9898924,0.77350503,1.2216991,-3.2356255,0.3338313,4.0242467,0.43368348,7.512481,16.758385,8.465171,11.469818,55.691254,20.884315,13.134688,7.6826725,146.20554,11.0,2.0,12.0,16.0,-3.0,1.0,0.0,-3.0,131.0,216.0,111.0,183.0,371.0,281.0,154.0,136.0,1619.0
3.344,L101,365.0,-106.0,-62.0,470.0,99.0,1244.0,0.14972906,0.8282364,1.0010482,0.53566635,-0.9739776,0.64866316,3.0902352,0.43469995,2.0886557,0.3590551,1.0111572,4.403184,1.4763035,0.40694413,0.123114325,0.7764276,16.359142,-2.0,-4.0,1.0,4.0,-2.0,-2.0,8.0,3.0,-2.0,-1.0,6.0,91.0,21.0,8.0,8.0,1.0,138.0,R101,-7.0,8.0,-2.0,-24.0,12.0,1004.0,0.6169291,1.2683654,0.7968964,1.2607844,2.219202,5.0115213,4.7450085,1.3922831,13.146981,18.525446,13.949367,19.60366,22.79551,9.639433,6.276805,6.6602263,127.90841,17.0,5.0,18.0,17.0,57.0,70.0,28.0,32.0,197.0,233.0,178.0,255.0,212.0,164.0,79.0,93.0,1655.0
3.566,L101,-186.0,132.0,-40.0,-21.0,649.0,1240.0,0.14972906,0.87324756,1.1657752,1.0470686,-0.8445332,0.98210907,3.062081,0.41060627,1.3175522,3.2281487,1.026456,5.217255,11.307914,2.6105537,8.104491,4.9890747,44.64753,-2.0,-3.0,7.0,10.0,0.0,3.0,7.0,2.0,34.0,43.0,15.0,105.0,113.0,56.0,111.0,75.0,576.0,R101,-2.0,-17.0,-11.0,-40.0,-6.0,998.0,2.6307275,2.2417529,0.8562051,0.9968515,3.5520234,10.166767,7.597529,6.3756933,5.016331,13.98947,16.764122,22.498507,9.638717,8.416404,2.5442617,5.914869,119.200226,42.0,17.0,23.0,10.0,95.0,139.0,108.0,117.0,99.0,186.0,213.0,279.0,114.0,148.0,29.0,72.0,1691.0
3.731,L101,-210.0,177.0,18.0,-71.0,-159.0,1367.0,0.115675956,0.7841428,1.052079,0.96459174,-0.48770285,0.78288835,3.1470196,0.41060627,1.5115868,5.420509,1.0978341,5.9717765,24.22945,6.512121,15.017987,12.292884,78.823456,-3.0,-5.0,3.0,9.0,6.0,0.0,10.0,2.0,40.0,70.0,19.0,117.0,199.0,137.0,208.0,174.0,986.0,R101,166.0,-93.0,115.0,-713.0,2120.0,1338.0,0.5261351,1.9377016,0.82838345,0.788982,-3.0753064,0.5332616,4.318669,0.55992734,1.5405912,-0.28699034,0.9274927,2.4477487,3.0341156,1.5652046,0.18585505,0.5742951,16.406067,16.0,13.0,21.0,4.0,-2.0,4.0,12.0,7.0,2.0,0.0,1.0,41.0,46.0,30.0,1.0,13.0,209.0
3.829,L101,-5.0,2.0,-4.0,-17.0,-4.0,1069.0,0.14972906,0.91916835,1.0790735,2.490893,-0.60164267,0.9159696,3.0340843,0.36488646,6.1308823,10.969481,7.3979635,9.181018,63.77674,24.911587,10.73224,10.925007,152.37708,-2.0,-2.0,4.0,30.0,4.0,2.0,6.0,0.0,105.0,142.0,103.0,160.0,388.0,324.0,150.0,157.0,1571.0,R101,339.0,-6.0,-52.0,-578.0,1735.0,681.0,-0.95849884,1.2683654,0.7830491,0.75602806,-3.0753064,0.46675768,4.193462,0.54091585,1.6234243,-0.7081114,0.93664944,2.3443644,2.9514747,1.5237316,-0.21597317,0.729508,13.159841,0.0,5.0,16.0,3.0,-2.0,3.0,7.0,6.0,0.0,-3.0,2.0,39.0,45.0,29.0,-3.0,14.0,161.0
3.859,L101,-1.0,0.0,-1.0,-14.0,39.0,1005.0,0.115675956,0.91916835,1.135938,2.6780214,-0.9739776,0.9159696,2.9510303,0.2836273,7.6062,12.123109,9.253885,11.4313135,54.4472,23.736456,9.57603,10.068664,146.26831,-3.0,-2.0,6.0,33.0,-2.0,2.0,3.0,-4.0,122.0,158.0,122.0,185.0,351.0,315.0,133.0,146.0,1565.0,R101,393.0,18.0,-34.0,-223.0,1024.0,931.0,-1.2309331,1.2683654,0.783143,0.69159395,-3.0753064,0.46675768,4.095915,0.5802484,1.7678099,-0.7081114,0.961709,2.6464665,3.1171963,1.7338593,-0.0121766245,0.09050758,13.177044,-3.0,5.0,9.0,1.0,-2.0,3.0,3.0,8.0,-3.0,-3.0,4.0,45.0,47.0,34.0,-1.0,10.0,157.0
3.892,L101,-19.0,32.0,3.0,-14.0,26.0,1026.0,0.88976693,3.1136477,2.6844707,7.3993974,1.9982185,13.391119,7.7591805,9.101102,2.2536836,1.9415414,8.766988,19.874926,2.4140303,3.7702796,0.322673,2.9815881,88.66261,14.0,34.0,42.0,126.0,75.0,170.0,125.0,159.0,55.0,26.0,117.0,261.0,33.0,84.0,10.0,43.0,1374.0,R101,407.0,148.0,86.0,-626.0,786.0,1324.0,-1.2309331,1.1774578,0.77517587,0.75602806,-3.2356255,0.3338313,3.977166,0.523243,1.6234243,-0.28699034,1.0876157,2.4477487,3.3690608,1.6489786,0.08753522,1.6002291,14.653945,-3.0,4.0,14.0,3.0,-3.0,1.0,-2.0,5.0,0.0,0.0,10.0,41.0,50.0,32.0,0.0,20.0,172.0
3.990,L101,-71.0,-2.0,21.0,-60.0,-33.0,1145.0,2.762892,4.374759,11.088156,15.676467,1.4951494,12.819043,8.204473,11.918002,1.5575138,0.4459035,1.3065118,5.339158,1.5492356,1.6497122,-0.07942656,1.2944504,81.40198,44.0,50.0,166.0,232.0,59.0,164.0,133.0,199.0,6.0,1.0,26.0,107.0,22.0,33.0,6.0,12.0,1260.0,R101,159.0,202.0,82.0,-840.0,-3174.0,1958.0,-1.2309331,1.3574727,0.7735506,0.7235645,-2.7640522,0.3338313,4.0242467,0.46653515,1.2747478,1.3539933,1.4462426,2.4983895,5.332957,1.5237316,0.28283086,-0.42141443,16.975693,-3.0,6.0,13.0,2.0,0.0,1.0,0.0,1.0,12.0,13.0,20.0,42.0,72.0,29.0,2.0,7.0,217.0
4.086,L101,-204.0,4.0,229.0,121.0,2333.0,892.0,0.14972906,1.1117884,1.9807236,1.7427802,-0.7205044,1.179053,3.291799,0.38733146,1.7918508,0.63730115,1.0408128,4.5155334,2.0070689,0.57467,0.5193339,0.86700326,21.076275,-2.0,2.0,28.0,19.0,2.0,6.0,15.0,1.0,2.0,5.0,16.0,93.0,28.0,11.0,12.0,3.0,241.0,R101,-27.0,-14.0,-124.0,606.0,-4326.0,1028.0,-0.774036,1.4448645,0.7830491,0.9256469,-2.4650414,0.3338313,4.0479956,0.5802484,4.868346,5.595315,1.6344278,3.1510415,6.0000005,1.5652046,0.4729377,1.0311154,29.194946,2.0,7.0,16.0,8.0,2.0,1.0,1.0,8.0,97.0,61.0,24.0,56.0,79.0,30.0,4.0,16.0,412.0
4.119,L101,49.0,-7.0,106.0,-48.0,1284.0,647.0,0.14972906,1.1117884,2.0273232,2.0956562,-0.9739776,0.7159244,3.1470196,0.38733146,1.9321578,0.3179901,1.0021396,4.1820602,2.2485564,0.4635567,0.8090736,0.91290903,20.529238,-2.0,2.0,29.0,24.0,-2.0,-1.0,10.0,1.0,0.0,-2.0,7.0,87.0,31.0,9.0,15.0,4.0,212.0,R101,-1.0,5.0,8.0,10.0,15.0,1024.0,3.6517794,2.8788168,0.7968964,1.9460491,1.6245738,10.822135,9.7849,6.3756933,13.606713,21.876038,17.437696,15.146783,14.316561,3.9402583,3.359032,4.354865,131.9188,59.0,26.0,18.0,33.0,45.0,147.0,151.0,117.0,202.0,262.0,221.0,217.0,153.0,79.0,40.0,46.0,1816.0
4.184,L101,113.0,-64.0,-4.0,36.0,1269.0,364.0,0.115675956,1.0137068,1.5908005,1.5198902,-0.90856284,0.98210907,3.2333996,0.34328243,1.6671574,0.68860215,0.9924446,3.7002428,2.0866559,0.5194591,0.9042939,0.82150817,19.270666,-3.0,0.0,19.0,16.0,-1.0,3.0,13.0,-1.0,4.0,6.0,9.0,78.0,29.0,10.0,16.0,2.0,200.0,R101,-4.0,0.0,-1.0,-54.0,5.0,998.0,3.75372,2.6019106,1.017704,2.086611,1.8906882,12.093536,9.117821,4.9251356,12.783817,18.525446,16.764122,11.571308,7.8077254,2.3592594,2.2393506,3.1640606,112.70222,61.0,22.0,31.0,36.0,50.0,162.0,139.0,94.0,193.0,233.0,213.0,184.0,97.0,48.0,25.0,33.0,1621.0
4.281,L101,234.0,-61.0,48.0,-1008.0,557.0,1130.0,0.26207143,0.87324756,1.4736259,1.9572018,-0.9739776,0.7159244,3.1470196,0.32253042,1.8600168,0.7412056,1.0021396,4.2369084,2.7554116,0.40694413,1.2786435,1.0059359,21.064848,1.0,-3.0,16.0,22.0,-2.0,-1.0,10.0,-2.0,1.0,7.0,7.0,88.0,37.0,8.0,20.0,6.0,215.0,R101,-13.0,-1.0,-2.0,-53.0,5.0,1013.0,4.493365,3.1494818,1.2504195,2.3289623,1.9893855,12.006949,8.853477,5.050786,9.825225,14.863853,13.870317,8.508103,6.0969353,1.9509249,1.8478655,2.4935765,98.57963,78.0,30.0,39.0,41.0,52.0,161.0,134.0,96.0,159.0,196.0,177.0,151.0,80.0,39.0,20.0,27.0,1480.0
4.347,L101,225.0,-74.0,-123.0,114.0,-496.0,1771.0,0.14972906,0.91916835,1.3634664,2.2306676,-1.109089,0.9159696,3.2625175,0.36488646,1.6104891,0.5873412,0.9935302,4.0731955,2.0070689,0.62920773,1.4620366,0.95922124,20.419407,-2.0,-2.0,13.0,26.0,-4.0,2.0,14.0,0.0,5.0,4.0,11.0,85.0,28.0,12.0,22.0,5.0,219.0,R101,-8.0,-11.0,-1.0,-53.0,-5.0,976.0,4.171186,3.0147302,1.5836129,2.529946,2.0372145,11.748797,8.801535,6.3756933,6.317144,12.686735,12.12214,9.459066,5.616367,1.9951746,1.5240719,2.7263794,92.70979,70.0,28.0,48.0,45.0,53.0,158.0,133.0,117.0,116.0,170.0,155.0,162.0,75.0,40.0,16.0,29.0,1415.0
4.511,L101,171.0,-88.0,-172.0,111.0,-947.0,1727.0,0.08343187,0.87324756,1.2941169,1.5951537,-1.0408092,0.64866316,3.062081,0.38733146,1.6671574,0.3590551,1.0145017,3.7002428,2.1671548,0.5194591,0.9988511,0.86700326,18.196642,-4.0,-3.0,11.0,17.0,-3.0,-2.0,7.0,1.0,4.0,-1.0,14.0,78.0,30.0,10.0,17.0,3.0,179.0,R101,-37.0,-54.0,-11.0,-20.0,-39.0,1181.0,2.8970172,4.434259,4.656466,4.726621,0.28769568,3.7660708,12.022557,31.774158,1.6234243,-0.015593896,1.5374354,5.487735,1.3216846,2.1296027,0.08753522,2.3735516,79.110214,46.0,49.0,104.0,83.0,26.0,52.0,186.0,366.0,0.0,2.0,22.0,107.0,24.0,43.0,0.0,26.0,1136.0
4.541,L101,-190.0,-20.0,33.0,492.0,-1806.0,882.0,0.14972906,0.8282364,1.1657752,1.208818,-0.9739776,0.8495664,3.0340843,0.36488646,1.1995357,1.527206,1.1470188,4.686414,6.4875717,2.3668606,5.224444,3.8323214,33.09849,-2.0,-4.0,7.0,12.0,-2.0,1.0,6.0,0.0,17.0,20.0,21.0,96.0,74.0,50.0,69.0,57.0,422.0,R101,-98.0,-79.0,-44.0,-234.0,-177.0,1479.0,2.2005153,4.2949038,5.5576186,5.116762,-2.7640522,0.3338313,8.153379,32.930317,1.5806947,0.37804067,1.061603,3.7910128,1.6160301,1.9951746,-0.11332944,1.4621098,67.59462,36.0,47.0,118.0,89.0,0.0,1.0,120.0,372.0,1.0,5.0,9.0,71.0,28.0,40.0,-2.0,19.0,954.0
4.639,L101,-148.0,-20.0,1.0,15.0,-16.0,1445.0,0.3883432,0.8282364,1.052079,2.0956562,-1.0408092,0.78288835,3.0062442,0.2836273,1.5907557,9.502629,5.6590843,8.12313,51.400352,19.5726,9.9134245,11.162293,124.32053,4.0,-4.0,3.0,24.0,-3.0,0.0,5.0,-4.0,42.0,122.0,85.0,147.0,338.0,281.0,138.0,160.0,1338.0,R101,-250.0,-137.0,-206.0,-592.0,-39.0,2051.0,1.7343367,2.9469428,1.5432782,2.086611,-3.0753064,0.068306506,4.318669,7.2610555,1.5405912,-0.28699034,0.9144459,2.8360145,1.5417067,1.9069545,0.08753522,1.6002291,27.024378,30.0,27.0,47.0,36.0,-2.0,-3.0,12.0,131.0,2.0,0.0,-3.0,49.0,27.0,38.0,0.0,20.0,411.0
4.672,L101,1.0,-9.0,-2.0,16.0,24.0,1001.0,0.14972906,0.87324756,1.2941169,2.2969234,-0.9739776,0.8495664,2.9785597,0.32253042,12.0759735,16.923473,7.4957113,8.764984,55.89123,13.277396,13.236423,9.91517,145.37106,-2.0,-3.0,11.0,27.0,-2.0,1.0,4.0,-2.0,175.0,221.0,104.0,155.0,357.0,222.0,185.0,144.0,1597.0,R101,-268.0,-265.0,-184.0,-332.0,401.0,2395.0,-0.120884605,2.2417529,1.2178265,0.85634995,-3.0753064,0.13464636,4.0479956,0.9511102,1.5030708,-0.28699034,0.93664944,2.2379744,1.9948707,1.863263,-0.21597317,0.88176733,15.168122,9.0,17.0,38.0,6.0,-2.0,-2.0,1.0,21.0,3.0,0.0,2.0,37.0,33.0,37.0,-3.0,15.0,212.0
4.704,L101,2.0,-5.0,0.0,13.0,34.0,1003.0,0.14972906,1.0137068,1.2607138,2.0956562,-0.3784427,1.179053,3.1185477,0.36488646,12.0759735,17.007769,7.8870363,7.5104437,46.697067,11.421194,13.841685,8.341142,133.58617,-2.0,0.0,10.0,24.0,8.0,6.0,9.0,0.0,175.0,222.0,108.0,139.0,317.0,202.0,193.0,123.0,1534.0,R101,-51.0,83.0,139.0,-636.0,788.0,928.0,-0.49478763,1.5306237,1.0972501,0.96101207,-2.9181287,0.3338313,3.977166,0.5069384,1.5806947,-0.7081114,0.9206464,2.4983895,1.5417067,1.4416106,-0.21597317,1.1775941,13.230463,5.0,8.0,34.0,9.0,-1.0,1.0,-2.0,4.0,1.0,-3.0,0.0,42.0,27.0,27.0,-3.0,17.0,166.0
4.807,L101,0.0,8.0,2.0,18.0,34.0,991.0,0.14972906,1.3183308,1.3634664,1.7427802,0.23384206,1.9496464,3.1470196,0.38733146,12.982152,17.871935,11.54804,9.870428,34.523582,11.780258,12.13754,9.91517,130.92126,-2.0,6.0,13.0,19.0,21.0,18.0,10.0,1.0,186.0,232.0,146.0,168.0,257.0,206.0,170.0,144.0,1595.0,R101,25.0,170.0,57.0,-406.0,1001.0,727.0,-0.49478763,1.6148312,0.8720865,0.75602806,-3.2356255,0.66635096,4.0479956,0.46653515,1.5405912,-0.7081114,0.9206464,2.54837,2.3064318,1.5237316,-0.11332944,0.41608608,13.1278305,5.0,9.0,24.0,3.0,-3.0,6.0,1.0,1.0,2.0,-3.0,0.0,43.0,37.0,29.0,-2.0,12.0,164.0
4.836,L101,-1.0,10.0,2.0,9.0,30.0,1006.0,0.14972906,0.91916835,1.2607138,1.8151741,-0.2228055,2.2653375,3.2044446,0.43469995,12.0759735,14.616401,12.660721,12.812052,38.988396,16.118853,11.780475,11.162293,140.04163,-2.0,-2.0,10.0,20.0,11.0,23.0,12.0,3.0,175.0,192.0,158.0,199.0,280.0,250.0,165.0,160.0,1654.0,R101,145.0,192.0,-40.0,643.0,1151.0,987.0,-0.774036,1.4448645,0.8164951,0.7235645,-3.0753064,0.66635096,4.0242467,0.5069384,1.5030708,-0.28699034,0.93664944,2.6464665,2.5449398,1.2018073,0.4729377,0.729508,14.081508,2.0,7.0,20.0,2.0,-2.0,6.0,0.0,4.0,3.0,0.0,2.0,45.0,40.0,21.0,4.0,14.0,168.0
4.866,L101,-2.0,4.0,1.0,5.0,31.0,1002.0,0.115675956,0.91916835,1.135938,1.6694453,0.19197413,2.8930764,3.2333996,0.30264163,11.82882,13.353817,14.198032,14.382926,37.40876,19.689304,10.801177,11.803476,143.92764,-3.0,-2.0,6.0,18.0,20.0,33.0,13.0,-3.0,172.0,175.0,175.0,214.0,272.0,282.0,151.0,168.0,1691.0,R101,194.0,163.0,-40.0,659.0,971.0,1196.0,-0.95849884,1.2683654,0.7830491,0.788982,-2.7640522,0.46675768,4.000637,0.54091585,1.5405912,-0.28699034,0.9274927,2.4477487,2.385478,1.2410948,0.3785097,1.0311154,13.791197,0.0,5.0,16.0,4.0,0.0,3.0,-1.0,6.0,2.0,0.0,1.0,41.0,38.0,22.0,3.0,16.0,156.0
4.898,L101,-4.0,3.0,1.0,2.0,27.0,998.0,0.14972906,0.91916835,1.1070321,1.8866427,1.1345121,3.5222948,3.5628576,0.5670702,10.836104,13.135116,15.173663,17.082829,31.916983,20.635088,8.905627,11.241763,141.77647,-2.0,-2.0,5.0,21.0,47.0,43.0,24.0,8.0,160.0,172.0,186.0,238.0,243.0,290.0,123.0,161.0,1717.0,R101,267.0,148.0,40.0,774.0,579.0,1818.0,-1.3202382,1.0846632,0.77517587,0.66011906,-3.3991258,0.3338313,4.0242467,0.55992734,1.7169374,-0.28699034,0.9480702,2.396417,2.2278454,1.2410948,-0.11332944,1.1775941,12.0262375,-4.0,3.0,14.0,0.0,-4.0,1.0,0.0,7.0,-2.0,0.0,3.0,40.0,36.0,22.0,-2.0,17.0,131.0
4.964,L101,-5.0,5.0,2.0,4.0,24.0,999.0,0.18552329,0.91916835,1.1657752,2.858772,1.6164753,5.1427746,4.046168,3.004,8.81279,11.97913,16.228611,19.874926,23.89742,20.277874,8.171263,10.455314,138.63599,-1.0,-2.0,7.0,36.0,63.0,68.0,39.0,63.0,136.0,156.0,198.0,261.0,197.0,287.0,112.0,151.0,1771.0,R101,209.0,14.0,44.0,569.0,-241.0,2169.0,-1.4086262,0.8930551,0.78924006,0.69159395,-3.3991258,0.26740894,3.9538326,0.49203193,1.6234243,-0.5658293,1.061603,2.396417,3.3690608,1.360586,0.28283086,0.88176733,12.68927,-5.0,1.0,17.0,1.0,-4.0,0.0,-3.0,3.0,0.0,-2.0,9.0,40.0,50.0,25.0,2.0,15.0,149.0
4.997,L101,-5.0,5.0,1.0,0.0,22.0,1000.0,0.26207143,0.87324756,1.1657752,2.3623683,1.9649955,7.107951,5.4690423,8.492466,7.085387,11.763182,17.459587,21.409672,19.093613,17.973581,5.9324374,8.709891,137.12526,1.0,-3.0,7.0,28.0,74.0,96.0,77.0,150.0,116.0,153.0,212.0,273.0,167.0,267.0,79.0,128.0,1825.0,R101,239.0,52.0,-23.0,47.0,-1345.0,1989.0,-1.2309331,0.79405826,0.7830491,0.82242346,-3.2356255,0.0019945984,4.0242467,0.47855392,1.5806947,-0.5658293,1.2103754,2.4983895,3.453884,1.4009615,0.08753522,0.88176733,12.985546,-3.0,0.0,16.0,5.0,-3.0,-4.0,0.0,2.0,1.0,-2.0,14.0,42.0,51.0,26.0,0.0,15.0,160.0
5.028,L101,-7.0,6.0,1.0,-3.0,18.0,1008.0,0.3026972,1.0623085,1.2607138,3.0336108,1.9982185,11.169038,7.7591805,8.627138,4.4365225,9.577079,17.813663,25.91834,11.042637,11.421194,3.1749787,7.114407,125.71175,2.0,1.0,10.0,39.0,75.0,146.0,125.0,152.0,85.0,123.0,216.0,306.0,111.0,202.0,42.0,106.0,1741.0,R101,111.0,19.0,-12.0,865.0,-2699.0,1689.0,-1.2309331,0.5892044,0.78924006,0.89075863,-3.5658467,0.0019945984,4.0242467,0.62470526,1.5405912,-0.5658293,1.282413,2.6946414,3.9718328,1.6489786,0.18585505,0.88176733,13.763618,-3.0,-2.0,17.0,7.0,-5.0,-4.0,0.0,10.0,2.0,-2.0,16.0,46.0,57.0,32.0,1.0,15.0,187.0
5.128,L101,-23.0,56.0,11.0,16.0,-2.0,1088.0,4.6522593,4.712613,2.1223402,3.579716,1.0425442,8.72136,9.666761,27.284527,1.1587968,0.9638952,6.232411,14.817273,2.7554116,2.6105537,0.42136043,3.040751,93.78258,74.0,54.0,31.0,49.0,44.0,117.0,157.0,345.0,22.0,11.0,91.0,218.0,37.0,56.0,11.0,44.0,1361.0,R101,-162.0,-86.0,-41.0,840.0,-3659.0,1430.0,-0.49478763,1.3574727,0.7735506,0.96101207,-3.2356255,0.068306506,3.977166,0.62470526,1.3527391,2.3370907,1.7369409,3.70642,7.4971614,2.406034,2.694558,2.4935765,28.256319,5.0,6.0,13.0,9.0,-3.0,-3.0,-2.0,10.0,8.0,22.0,26.0,69.0,94.0,49.0,31.0,27.0,361.0
5.160,L101,-120.0,67.0,26.0,16.0,-73.0,1478.0,5.7376695,5.1465125,4.092242,5.9680877,1.2853009,11.527074,11.414482,36.629234,1.4200655,0.63730115,1.4689012,6.438724,1.4763035,2.0363848,0.22326112,1.6999571,97.20149,93.0,59.0,66.0,99.0,52.0,150.0,182.0,396.0,9.0,5.0,30.0,124.0,21.0,42.0,9.0,20.0,1357.0,R101,-184.0,-118.0,-99.0,129.0,823.0,1093.0,-1.2309331,0.8930551,0.77517587,0.9256469,-3.5658467,0.2010139,3.977166,0.6018505,1.2316191,5.4562645,1.8447034,4.866938,9.9745655,4.1639304,7.4164805,5.001225,42.532856,-3.0,1.0,14.0,8.0,-5.0,-1.0,-2.0,9.0,16.0,59.0,28.0,95.0,117.0,83.0,93.0,55.0,567.0
5.256,L101,-290.0,288.0,-144.0,1584.0,1869.0,1128.0,0.14972906,0.9659907,1.052079,0.7105949,-0.9739776,1.2442449,3.4105818,0.6866062,2.1731606,0.3179901,1.100041,3.9653978,0.24034686,0.40694413,-0.92115027,0.86700326,15.395584,-2.0,-1.0,3.0,6.0,-2.0,7.0,19.0,12.0,-3.0,-2.0,1.0,83.0,1.0,8.0,-2.0,3.0,131.0,R101,-255.0,-71.0,-25.0,-907.0,-172.0,1485.0,-1.1408108,0.9898924,0.99338055,0.7235645,-3.0753064,0.26740894,4.0718846,0.6740619,1.3042525,7.6230106,2.794924,5.7692313,36.55782,13.551288,11.329782,6.950114,89.38449,-2.0,2.0,30.0,2.0,-2.0,0.0,2.0,12.0,29.0,93.0,43.0,112.0,288.0,210.0,136.0,104.0,1059.0
5.289,L101,244.0,122.0,-401.0,819.0,1797.0,1191.0,0.18552329,0.91916835,1.0790735,1.0470686,-1.0408092,0.78288835,3.3212454,0.48530015,2.0083463,0.24079579,1.0555149,3.287117,0.5642031,0.23265727,-0.49379984,0.7764276,14.450721,-1.0,-2.0,4.0,10.0,-3.0,0.0,16.0,5.0,-1.0,-4.0,3.0,70.0,7.0,5.0,2.0,1.0,112.0,R101,-116.0,-101.0,-1.0,38.0,-29.0,1950.0,-0.86649245,0.692807,0.8164951,0.7235645,-2.7640522,0.068306506,4.000637,0.47855392,1.6129763,15.692009,7.2519116,6.7727003,51.145004,21.00076,12.121296,7.429206,126.17568,1.0,-1.0,20.0,2.0,0.0,-3.0,-1.0,2.0,41.0,205.0,97.0,128.0,353.0,282.0,144.0,125.0,1395.0
5.582,L101,134.0,-38.0,-22.0,-970.0,-2841.0,1570.0,0.14972906,0.87324756,1.135938,0.96459174,-0.9739776,0.7159244,3.0902352,0.34328243,2.0886557,0.27855557,0.9924446,4.347464,1.7738748,0.4635567,0.322673,1.0059359,17.572132,-2.0,-3.0,6.0,9.0,-2.0,-1.0,8.0,-1.0,-2.0,-3.0,9.0,90.0,25.0,9.0,10.0,6.0,158.0,R101,-11.0,-16.0,0.0,-10.0,-7.0,1037.0,-0.86649245,0.8930551,0.7735506,0.82242346,-3.3991258,0.068306506,4.0242467,0.45600685,4.149196,19.072863,9.064681,11.168262,55.691254,21.35259,14.172737,7.989005,145.43256,1.0,1.0,13.0,5.0,-4.0,-3.0,0.0,0.0,87.0,238.0,118.0,180.0,371.0,285.0,164.0,148.0,1604.0
5.614,L101,10.0,36.0,47.0,-808.0,-3074.0,1037.0,0.18552329,0.87324756,1.0260649,0.8810291,-0.60164267,0.58109325,3.1756516,0.38733146,2.1731606,0.3179901,0.9935302,4.0191665,1.7738748,0.57467,0.322673,1.2454054,17.92877,-1.0,-3.0,2.0,8.0,4.0,-3.0,11.0,1.0,-3.0,-2.0,11.0,84.0,25.0,11.0,10.0,11.0,166.0,R101,0.0,1.0,-2.0,-20.0,21.0,992.0,-0.6812132,1.1774578,0.7830491,0.9968515,-2.7640522,0.40028092,3.977166,0.4395487,7.0300717,17.059675,9.064681,12.931472,37.998856,16.138128,13.754683,7.8822265,126.18889,3.0,4.0,16.0,10.0,0.0,2.0,-2.0,-2.0,125.0,219.0,118.0,197.0,295.0,237.0,160.0,144.0,1526.0
5.646,L101,-250.0,148.0,59.0,-558.0,-1278.0,5031.0,0.08343187,0.8282364,1.0260649,0.7963677,-0.60164267,0.64866316,3.1470196,0.41060627,1.6104891,2.1580234,1.0978341,4.9778314,7.6479983,2.078224,4.2674837,3.2799594,33.456593,-4.0,-4.0,2.0,7.0,4.0,-2.0,10.0,2.0,5.0,29.0,19.0,101.0,84.0,43.0,56.0,48.0,400.0,R101,0.0,-6.0,-3.0,-27.0,22.0,990.0,-0.95849884,0.9898924,0.94815916,0.96101207,-3.2356255,0.3338313,4.0242467,0.45600685,6.87047,17.059675,9.319713,15.374784,35.14693,15.839301,11.822403,8.07272,123.025024,0.0,2.0,28.0,9.0,-3.0,1.0,0.0,0.0,123.0,219.0,121.0,219.0,281.0,234.0,141.0,151.0,1526.0
5.809,L101,-127.0,228.0,98.0,-68.0,864.0,770.0,0.115675956,0.87324756,1.1070321,1.3663871,-0.7205044,0.7159244,3.1470196,0.41060627,1.1995357,3.8688605,1.3065118,5.8420815,11.843799,2.7723975,10.939421,6.5516157,51.33961,-3.0,-3.0,5.0,14.0,2.0,-1.0,10.0,2.0,17.0,51.0,26.0,115.0,117.0,60.0,153.0,98.0,663.0,R101,-448.0,-79.0,-95.0,-215.0,-319.0,2940.0,3.3238995,3.1494818,2.7998602,1.5469275,-1.7689453,1.3334721,6.147187,6.059765,1.5806947,0.75618774,0.91615796,1.7773296,3.1171963,1.7338593,1.1885669,-0.42141443,33.24023,53.0,30.0,73.0,24.0,7.0,16.0,72.0,112.0,1.0,8.0,-1.0,29.0,47.0,34.0,12.0,7.0,524.0
5.841,L101,-1.0,0.0,-2.0,-17.0,112.0,1037.0,0.14972906,0.87324756,1.1070321,1.5951537,-0.60164267,0.78288835,3.0062442,0.32253042,5.614027,10.824513,8.669383,9.695342,64.85122,20.159485,10.252852,12.3752,149.6772,-2.0,-3.0,5.0,17.0,4.0,0.0,5.0,-2.0,99.0,140.0,116.0,166.0,392.0,286.0,143.0,175.0,1541.0,R101,-502.0,-167.0,-90.0,-253.0,195.0,4099.0,2.125266,2.3880916,0.9273085,0.9968515,-3.2356255,0.5997927,4.7171702,1.9197445,1.5806947,0.24858661,0.9274927,1.9572105,2.7062116,1.8198502,-4.642219,-11.982364,3.0540648,35.0,19.0,27.0,10.0,-3.0,5.0,27.0,43.0,1.0,4.0,1.0,32.0,42.0,36.0,-35.0,-37.0,207.0
5.876,L101,0.0,-3.0,0.0,-8.0,30.0,1001.0,0.14972906,0.9659907,1.2607138,1.3663871,-0.8445332,1.9496464,3.2333996,0.38733146,10.836104,14.240084,11.54804,13.9550085,48.014774,14.562732,10.116811,10.222817,141.96504,-2.0,-1.0,10.0,14.0,0.0,18.0,13.0,1.0,160.0,187.0,146.0,210.0,323.0,235.0,141.0,148.0,1603.0,R101,168.0,27.0,135.0,-534.0,1585.0,597.0,-0.40133697,1.5306237,0.8416288,0.788982,-2.7640522,0.5997927,4.2182093,0.49203193,1.7678099,-0.28699034,0.93664944,2.54837,3.2007153,1.9509249,0.7491641,-0.42141443,15.751109,6.0,8.0,22.0,4.0,0.0,5.0,8.0,3.0,-3.0,0.0,2.0,43.0,48.0,39.0,7.0,7.0,199.0
5.908,L101,-2.0,-1.0,0.0,0.0,28.0,994.0,0.14972906,0.9659907,1.2941169,1.5198902,-0.48770285,2.5794792,3.2333996,0.34328243,11.91123,14.16538,11.828488,17.200123,42.237614,12.989415,9.441547,9.686146,139.05812,-2.0,-1.0,11.0,16.0,6.0,28.0,13.0,-1.0,173.0,186.0,149.0,239.0,296.0,219.0,131.0,141.0,1604.0,R101,258.0,36.0,78.0,-509.0,1107.0,658.0,-0.95849884,1.3574727,0.77350503,0.7235645,-3.2356255,0.5332616,4.193462,0.47855392,1.7678099,-0.28699034,0.9480702,2.183575,3.1171963,1.360586,0.92786545,0.88176733,14.765574,0.0,6.0,12.0,2.0,-3.0,4.0,7.0,2.0,-3.0,0.0,3.0,36.0,47.0,25.0,9.0,15.0,162.0
5.940,L101,-3.0,2.0,0.0,-3.0,26.0,999.0,0.14972906,1.0623085,1.2607138,2.2969234,1.1648664,4.5482774,3.9132836,0.922828,10.419384,14.465291,13.208165,19.624344,33.583313,12.237763,8.772003,9.232362,136.86156,-2.0,1.0,10.0,27.0,48.0,59.0,35.0,19.0,155.0,190.0,164.0,259.0,252.0,211.0,121.0,135.0,1684.0,R101,315.0,18.0,56.0,-317.0,513.0,960.0,-1.1408108,1.4448645,0.7830491,0.7235645,-3.2356255,0.46675768,4.0242467,0.49203193,1.6234243,-0.5658293,0.9206464,2.396417,2.7062116,1.5237316,0.8390317,-0.42141443,12.5802965,-2.0,7.0,16.0,2.0,-3.0,3.0,0.0,3.0,0.0,-2.0,0.0,40.0,42.0,29.0,8.0,7.0,150.0
5.974,L101,-4.0,4.0,0.0,-7.0,24.0,999.0,0.14972906,0.87324756,1.3283728,2.2306676,1.9320737,7.4804616,5.264049,2.8375487,8.469747,14.16538,14.997095,20.635578,22.74694,12.704748,6.962751,8.709891,131.48828,-2.0,-3.0,12.0,26.0,73.0,101.0,72.0,60.0,132.0,186.0,184.0,267.0,190.0,216.0,94.0,128.0,1736.0,R101,353.0,64.0,58.0,-492.0,252.0,1274.0,-0.774036,1.3574727,0.8562051,0.7235645,-2.7640522,0.46675768,4.0718846,0.47855392,1.6688238,-0.7081114,0.9480702,2.1283307,2.787521,1.5652046,1.0157061,-0.5985127,13.223382,2.0,6.0,23.0,2.0,0.0,3.0,2.0,2.0,-1.0,-3.0,3.0,35.0,43.0,30.0,10.0,6.0,163.0
6.071,L101,-4.0,3.0,0.0,-11.0,19.0,1000.0,0.26207143,0.87324756,1.2941169,2.858772,1.9982185,9.8705635,6.4897194,6.8340197,6.911618,13.646988,16.316357,21.540005,16.223639,12.145499,5.367748,7.9034295,130.53601,1.0,-3.0,11.0,36.0,75.0,131.0,100.0,125.0,114.0,179.0,199.0,274.0,148.0,210.0,71.0,117.0,1788.0,R101,356.0,140.0,0.0,-291.0,-515.0,2540.0,-1.1408108,1.2683654,0.77517587,0.59866744,-2.7640522,0.46675768,4.095915,0.47855392,1.6234243,-0.7081114,0.961709,2.183575,3.1171963,1.6489786,1.1025935,-0.42141443,13.286523,-2.0,5.0,14.0,-2.0,0.0,3.0,3.0,2.0,0.0,-3.0,4.0,36.0,47.0,32.0,11.0,7.0,157.0
6.105,L101,-9.0,0.0,3.0,-9.0,16.0,1008.0,1.5391406,1.5953346,2.0273232,2.7389574,1.2553014,12.350712,7.868637,7.6244655,4.0319843,12.772395,17.902458,24.08964,8.862987,7.622569,1.910103,4.857437,119.04944,25.0,11.0,29.0,34.0,51.0,159.0,127.0,137.0,80.0,167.0,217.0,293.0,94.0,154.0,27.0,73.0,1678.0,R101,308.0,179.0,-5.0,-156.0,-1027.0,2446.0,-1.2309331,1.1774578,0.7968964,0.6291427,-3.2356255,0.40028092,4.000637,0.54091585,1.5806947,-0.7081114,1.0154818,2.2379744,2.787521,1.4825337,0.92786545,-0.5985127,11.804218,-3.0,4.0,18.0,-1.0,-3.0,2.0,-1.0,6.0,1.0,-3.0,7.0,37.0,43.0,28.0,9.0,6.0,150.0
6.134,L101,-8.0,5.0,3.0,-16.0,17.0,1009.0,4.043613,2.8229468,2.2197025,3.1471171,1.1345121,9.702701,8.204473,8.897461,2.8340464,10.094572,16.228611,22.065128,6.715076,5.632732,1.3706472,3.3403854,108.45371,64.0,30.0,33.0,41.0,47.0,129.0,133.0,156.0,64.0,130.0,198.0,278.0,76.0,122.0,21.0,49.0,1571.0,R101,243.0,199.0,16.0,447.0,-1805.0,2256.0,-1.1408108,0.5892044,0.7750686,0.69159395,-3.2356255,0.40028092,4.0479956,0.46653515,1.6234243,-0.5658293,1.0876157,2.183575,3.2007153,1.5237316,0.4729377,-0.9626641,11.157747,-2.0,-2.0,11.0,1.0,-3.0,2.0,1.0,1.0,0.0,-2.0,10.0,36.0,48.0,29.0,4.0,4.0,138.0
6.166,L101,-74.0,39.0,6.0,-39.0,-12.0,1261.0,5.62754,5.7743263,5.9335003,6.8408012,1.8031381,14.269712,16.969954,18.619987,1.6765945,1.4608864,3.1080737,6.438724,1.6980313,1.2849917,0.123114325,1.0530491,92.68241,91.0,66.0,94.0,116.0,69.0,179.0,244.0,277.0,44.0,19.0,56.0,124.0,24.0,25.0,8.0,7.0,1443.0,R101,134.0,14.0,12.0,1240.0,-3125.0,1667.0,-1.1408108,0.79405826,0.783143,0.82242346,-2.7640522,0.2010139,3.977166,0.47855392,1.6234243,-0.7081114,1.2455392,2.6946414,3.3690608,1.5652046,0.3785097,0.09050758,13.410272,-2.0,0.0,9.0,5.0,0.0,-1.0,-2.0,2.0,0.0,-3.0,15.0,46.0,50.0,30.0,3.0,10.0,162.0
6.200,L101,-90.0,0.0,7.0,-67.0,12.0,964.0,4.5325985,8.387328,9.325057,9.108845,2.169281,20.631815,20.186335,20.69375,1.2111034,1.2672058,1.2366667,4.292041,1.4043623,0.9433062,-0.38901776,0.82150817,105.82218,72.0,93.0,142.0,153.0,80.0,238.0,272.0,296.0,29.0,16.0,24.0,89.0,20.0,18.0,3.0,2.0,1547.0,R101,-182.0,-58.0,-15.0,430.0,-3884.0,3355.0,-1.2309331,0.5892044,0.77827114,0.788982,-3.2356255,0.66635096,4.0242467,0.47855392,1.4356092,1.1195782,1.5852243,3.1070695,5.616367,2.1749725,1.5240719,0.254838,19.67678,-3.0,-2.0,10.0,4.0,-3.0,6.0,0.0,2.0,5.0,11.0,23.0,55.0,75.0,44.0,16.0,11.0,254.0
6.427,L101,367.0,46.0,-55.0,680.0,726.0,1176.0,0.115675956,0.91916835,1.0790735,1.0470686,-0.9739776,0.7159244,3.1756516,0.43469995,2.1731606,0.3590551,0.9924446,3.7002428,1.1945887,0.0512933,0.123114325,0.6875268,15.794712,-3.0,-2.0,4.0,10.0,-2.0,-1.0,11.0,3.0,-3.0,-1.0,9.0,78.0,17.0,2.0,8.0,-1.0,129.0,R101,-264.0,-104.0,80.0,-459.0,286.0,955.0,-1.1408108,0.692807,0.7897148,0.75602806,-3.2356255,0.3338313,4.095915,0.6740619,1.2260028,4.4932165,2.0749316,4.4894414,10.314298,4.107593,4.2342563,4.729968,38.63563,-2.0,-1.0,8.0,3.0,-3.0,1.0,3.0,12.0,17.0,46.0,32.0,87.0,120.0,82.0,52.0,51.0,508.0
6.525,L101,353.0,-53.0,41.0,498.0,606.0,746.0,0.14972906,0.91916835,1.1657752,0.4464872,-1.0408092,0.64866316,3.1756516,0.41060627,2.2619362,0.3179901,0.99799067,3.858618,1.4763035,0.23265727,0.123114325,0.82150817,15.96539,-2.0,-2.0,7.0,3.0,-3.0,-2.0,11.0,2.0,-4.0,-2.0,12.0,81.0,21.0,5.0,8.0,2.0,137.0,R101,-5.0,-3.0,-4.0,-29.0,10.0,996.0,0.06551421,0.9898924,0.90766317,1.0699425,2.5068724,5.4330654,5.529406,4.611871,10.163635,15.044479,16.68108,20.203325,16.16837,10.4393215,5.047025,6.8240476,121.685524,11.0,2.0,26.0,12.0,64.0,76.0,54.0,89.0,163.0,198.0,212.0,260.0,167.0,174.0,63.0,99.0,1670.0
6.558,L101,336.0,-150.0,-19.0,120.0,-66.0,1824.0,0.14972906,0.87324756,1.1657752,1.8866427,-0.9739776,0.64866316,3.1470196,0.41060627,2.0886557,0.27855557,0.991665,3.8055937,2.1671548,0.3496027,0.5193339,0.82150817,18.329777,-2.0,-3.0,7.0,21.0,-2.0,-2.0,10.0,2.0,-2.0,-3.0,10.0,80.0,30.0,7.0,12.0,2.0,167.0,R101,-8.0,-3.0,-4.0,-23.0,3.0,1005.0,2.8970172,2.8788168,0.8720865,1.1830697,3.0025,8.821087,7.0380383,6.754964,5.850266,14.420715,17.523159,24.576128,9.087527,7.7589645,2.0060406,6.200456,120.87083,46.0,26.0,24.0,15.0,78.0,122.0,95.0,123.0,110.0,191.0,222.0,296.0,109.0,139.0,22.0,79.0,1697.0
6.590,L101,357.0,-175.0,-6.0,93.0,-126.0,2462.0,0.14972906,0.87324756,1.135938,2.0956562,-0.9739776,0.5132032,3.1756516,0.511785,2.0886557,0.3590551,0.991665,3.858618,1.7738748,0.4635567,0.7131803,0.91290903,18.642748,-2.0,-3.0,6.0,24.0,-2.0,-4.0,11.0,6.0,-2.0,-1.0,10.0,81.0,25.0,9.0,14.0,4.0,176.0,R101,-8.0,-2.0,-6.0,-24.0,-2.0,1011.0,4.2137504,3.4169607,0.8562051,1.1448987,3.1006808,10.247873,8.057991,7.3877025,4.7948303,12.003004,16.433313,23.350723,8.016843,6.5769954,1.6060321,5.1891584,116.396965,71.0,34.0,23.0,14.0,81.0,140.0,118.0,133.0,96.0,161.0,209.0,286.0,99.0,122.0,17.0,58.0,1662.0
6.687,L101,254.0,-271.0,3.0,-279.0,-2199.0,2709.0,0.115675956,0.91916835,1.2281787,1.6694453,-0.9739776,0.8495664,3.0902352,0.36488646,2.0083463,0.3590551,0.99591917,3.7002428,1.6231482,0.29151344,0.7131803,0.82150817,17.776094,-3.0,-2.0,9.0,18.0,-2.0,1.0,8.0,0.0,-1.0,-1.0,8.0,78.0,23.0,6.0,14.0,2.0,158.0,R101,-9.0,-3.0,-7.0,-23.0,-8.0,1010.0,4.2137504,3.9528904,0.8720865,1.4216319,2.4678545,11.408275,8.9057255,8.213456,3.4724658,10.595748,14.423979,20.804884,6.19428,5.2255774,1.1885669,3.9359612,107.297134,71.0,42.0,24.0,21.0,63.0,154.0,135.0,146.0,77.0,141.0,184.0,265.0,81.0,101.0,12.0,41.0,1558.0
6.720,L101,137.0,-127.0,-6.0,-1603.0,-3276.0,1944.0,0.18552329,0.87324756,1.1657752,1.7427802,-1.0408092,0.98210907,3.1470196,0.36488646,1.7918508,0.27855557,0.9924446,3.9653978,2.2485564,0.5194591,0.9988511,0.86700326,19.082651,-1.0,-3.0,7.0,19.0,-3.0,3.0,10.0,0.0,2.0,-3.0,9.0,83.0,31.0,10.0,17.0,3.0,184.0,R101,-10.0,-5.0,-5.0,-12.0,-10.0,1014.0,4.4165444,3.7509308,1.4270573,2.1823514,1.9405549,14.729984,11.469733,9.047753,2.199781,7.6830297,11.719553,15.948939,4.9608474,3.400699,0.65822107,1.9985209,97.534485,76.0,39.0,44.0,38.0,51.0,191.0,178.0,159.0,55.0,94.0,150.0,224.0,68.0,69.0,6.0,23.0,1465.0
6.817,L101,-185.0,239.0,20.0,-429.0,-121.0,1305.0,0.053066228,0.7841428,1.0790735,0.7963677,-1.0408092,0.8495664,3.1470196,0.30264163,1.4746094,5.583944,1.3840313,5.9067264,21.454168,4.941812,16.943186,10.300146,73.959694,-5.0,-5.0,4.0,7.0,-3.0,1.0,10.0,-3.0,39.0,72.0,28.0,116.0,182.0,109.0,231.0,149.0,932.0,R101,-28.0,-22.0,-4.0,-12.0,-23.0,1058.0,3.9472632,4.863565,3.9698658,2.8963847,2.3878675,16.399467,13.1319275,11.613614,1.2207155,5.2435646,6.2068624,7.559061,3.6248229,2.312766,0.65822107,0.729508,86.76547,65.0,55.0,93.0,52.0,61.0,208.0,201.0,197.0,19.0,56.0,85.0,139.0,53.0,47.0,6.0,14.0,1351.0
6.948,L101,-4.0,-1.0,-2.0,-7.0,32.0,1006.0,0.14972906,0.91916835,1.1657752,2.6163769,-0.9739776,0.98210907,3.0062442,0.32253042,11.250794,14.616401,10.887815,11.817183,55.648838,22.593468,10.457656,9.53426,154.99438,-2.0,-2.0,7.0,32.0,-2.0,3.0,5.0,-2.0,165.0,192.0,139.0,189.0,356.0,306.0,146.0,139.0,1671.0,R101,-104.0,-13.0,-3.0,-26.0,-95.0,1363.0,5.2318606,7.4600554,8.295079,5.116762,3.6843443,14.445354,14.513461,20.289335,1.2489771,0.5057741,1.5374354,3.1510415,2.6253507,1.360586,0.18585505,-0.7789142,88.87236,100.0,86.0,159.0,89.0,99.0,188.0,218.0,291.0,14.0,6.0,22.0,56.0,41.0,25.0,1.0,5.0,1400.0
7.174,L101,-2.0,0.0,-1.0,-1.0,33.0,999.0,0.115675956,1.0137068,1.2281787,2.9759593,-0.9739776,1.7590426,2.9236548,0.32253042,12.817183,15.074898,12.200048,13.743485,44.332424,18.31078,9.845797,9.082333,144.77171,-3.0,0.0,9.0,38.0,-2.0,15.0,2.0,-2.0,184.0,198.0,153.0,208.0,306.0,270.0,137.0,133.0,1646.0,R101,353.0,190.0,3.0,-562.0,-903.0,2610.0,-1.1408108,1.1774578,0.8080829,0.69159395,-3.2356255,0.5332616,4.000637,0.5802484,1.7169374,-0.7081114,1.061603,1.9572105,3.1171963,1.4009615,0.18585505,1.3212451,13.467743,-2.0,4.0,6.0,1.0,-3.0,4.0,-1.0,8.0,-2.0,-3.0,9.0,32.0,47.0,26.0,1.0,18.0,145.0
7.207,L101,-3.0,2.0,0.0,-2.0,29.0,1000.0,0.08343187,1.0137068,1.2941169,3.8354647,1.5555837,5.412117,4.046168,0.85197794,9.916165,15.074898,14.554185,19.375244,28.155167,12.330408,7.636293,7.9034295,133.03836,-4.0,0.0,11.0,54.0,61.0,72.0,39.0,17.0,149.0,198.0,179.0,257.0,222.0,212.0,104.0,117.0,1688.0,R101,278.0,294.0,60.0,-169.0,-1918.0,2444.0,-1.4086262,0.8930551,0.7980176,0.7235645,-3.2356255,0.5997927,3.977166,0.5069384,1.6234243,-0.28699034,1.145336,1.5877953,3.3690608,1.4416106,-0.0121766245,1.7356439,13.457987,-5.0,1.0,7.0,2.0,-3.0,5.0,-2.0,4.0,0.0,0.0,12.0,26.0,50.0,27.0,-1.0,21.0,144.0
7.305,L101,-3.0,4.0,0.0,-5.0,25.0,996.0,0.14972906,0.91916835,1.399383,3.1471171,1.5253175,9.288441,6.029727,4.724304,7.519489,14.314965,15.525992,20.25358,19.248404,11.599948,6.2794,6.6214466,128.5464,-2.0,-2.0,14.0,41.0,60.0,124.0,90.0,92.0,121.0,188.0,190.0,264.0,168.0,204.0,84.0,99.0,1735.0,R101,136.0,211.0,79.0,1498.0,-3040.0,2227.0,-1.2309331,0.79405826,0.7750686,0.7235645,-3.3991258,0.46675768,3.977166,0.47855392,1.405584,-0.015593896,1.282413,2.1283307,3.6248229,1.5237316,0.08753522,1.7356439,14.357576,-3.0,0.0,11.0,2.0,-4.0,3.0,-2.0,2.0,6.0,2.0,16.0,35.0,53.0,29.0,0.0,21.0,171.0
7.402,L101,-85.0,23.0,5.0,-25.0,-12.0,1356.0,5.7924094,6.330086,6.345272,6.8950057,2.240233,17.373796,15.938294,14.315848,2.313907,2.3053195,3.1080737,6.855551,1.2634943,1.2849917,0.5193339,0.86700326,93.74861,94.0,72.0,100.0,117.0,82.0,209.0,234.0,230.0,56.0,31.0,56.0,130.0,18.0,25.0,12.0,3.0,1469.0,R101,23.0,-58.0,15.0,740.0,-3551.0,1187.0,-1.1408108,0.9898924,0.77827114,0.75602806,-3.2356255,0.40028092,4.0242467,0.49203193,1.2747478,1.4689251,1.282413,2.973247,4.5050287,1.8198502,0.65822107,2.4935765,19.540323,-2.0,2.0,10.0,3.0,-3.0,2.0,0.0,3.0,12.0,14.0,16.0,52.0,63.0,36.0,6.0,27.0,241.0
7.435,L101,-100.0,0.0,5.0,-15.0,-35.0,1264.0,5.0627604,8.693786,9.688718,9.108845,2.871112,24.668957,19.57432,16.479223,1.8669722,1.3308556,1.2047257,4.1820602,1.5492356,0.62920773,0.5193339,0.7764276,108.20654,81.0,96.0,147.0,153.0,98.0,271.0,267.0,255.0,48.0,17.0,23.0,87.0,22.0,12.0,12.0,1.0,1590.0,R101,-299.0,-159.0,82.0,-178.0,-749.0,1059.0,-1.2309331,0.8930551,0.7897148,0.568696,-3.0753064,0.26740894,4.000637,0.5069384,1.2316191,4.1723957,1.6344278,3.8333952,9.196914,3.2961597,4.749203,3.469057,34.303383,-3.0,1.0,8.0,-3.0,-2.0,0.0,-1.0,4.0,16.0,42.0,24.0,72.0,110.0,67.0,59.0,36.0,430.0
7.663,L101,358.0,-60.0,-21.0,352.0,34.0,1137.0,0.115675956,0.8282364,1.0260649,0.7963677,-1.0408092,0.7159244,3.1470196,0.38733146,2.0886557,0.3179901,0.9924446,3.7528043,1.3334224,0.3496027,0.322673,0.86700326,16.000408,-3.0,-4.0,2.0,7.0,-3.0,-1.0,10.0,1.0,-2.0,-2.0,9.0,79.0,19.0,7.0,10.0,3.0,132.0,R101,-219.0,-120.0,89.0,428.0,96.0,1061.0,-1.1408108,0.8930551,0.77827114,0.66011906,-3.0753064,0.3338313,4.1688595,0.5802484,1.260994,5.6640644,3.0830038,5.5986075,17.974693,5.983042,12.726258,6.0426784,61.53161,-2.0,1.0,10.0,0.0,-2.0,1.0,6.0,8.0,26.0,62.0,47.0,109.0,180.0,113.0,150.0,75.0,784.0
7.730,L101,329.0,-163.0,46.0,-21.0,-737.0,2635.0,0.115675956,0.8282364,1.052079,1.208818,-0.78185743,0.7159244,3.2044446,0.34328243,2.0083463,0.40170717,0.9935302,3.08469,1.6980313,0.3496027,0.5193339,0.91290903,16.654755,-3.0,-4.0,3.0,12.0,1.0,-1.0,12.0,-1.0,-1.0,0.0,11.0,66.0,24.0,7.0,12.0,4.0,142.0,R101,-293.0,-162.0,-15.0,208.0,24.0,2315.0,-0.95849884,0.8930551,0.77517587,0.66011906,-3.0753064,0.3338313,4.0479956,0.49203193,1.4596487,13.98947,5.2582755,5.7692313,45.66736,21.708216,10.940836,7.4068446,115.36828,0.0,1.0,14.0,0.0,-2.0,1.0,1.0,3.0,36.0,186.0,74.0,112.0,330.0,288.0,132.0,124.0,1300.0
7.761,L101,278.0,-209.0,41.0,-381.0,-1549.0,2707.0,0.18552329,0.91916835,1.1070321,1.208818,-0.90856284,0.98210907,3.0902352,0.38733146,1.8600168,0.3590551,1.026456,3.543858,1.9284034,0.29151344,0.7131803,0.82150817,17.515646,-1.0,-2.0,5.0,12.0,-1.0,3.0,8.0,1.0,1.0,-1.0,15.0,75.0,27.0,6.0,14.0,2.0,164.0,R101,-8.0,-6.0,-6.0,-12.0,0.0,1007.0,4.127907,4.088737,0.90766317,1.340312,2.3468354,10.988362,8.853477,8.213456,4.2899923,12.609083,16.598269,24.699291,6.19428,7.0541973,1.0157061,4.9356875,118.26326,69.0,44.0,26.0,19.0,60.0,149.0,134.0,146.0,89.0,169.0,211.0,297.0,81.0,129.0,10.0,54.0,1687.0
7.859,L101,178.0,-96.0,34.0,-1576.0,-2708.0,2148.0,0.115675956,0.9659907,1.0790735,1.2881181,-1.0408092,1.1136401,3.1470196,0.41060627,2.0083463,0.3179901,0.991665,3.7002428,2.2485564,0.3496027,0.6166038,0.82150817,18.133833,-3.0,-1.0,4.0,13.0,-3.0,5.0,10.0,2.0,-1.0,-2.0,10.0,78.0,31.0,7.0,13.0,2.0,165.0,R101,-15.0,-5.0,-5.0,-9.0,-8.0,1031.0,4.711305,4.3643737,1.886476,2.6847296,2.262535,15.898188,12.602027,13.500875,1.2881961,6.066715,9.993674,15.374784,3.9718328,3.039741,0.5661601,1.9985209,100.21014,84.0,48.0,55.0,48.0,58.0,203.0,194.0,222.0,28.0,68.0,129.0,219.0,57.0,62.0,5.0,23.0,1503.0
8.086,L101,-39.0,72.0,12.0,-1333.0,-3814.0,1242.0,0.14972906,0.91916835,1.0010482,1.0470686,-1.0408092,1.179053,3.2333996,0.43469995,1.3811861,0.3590551,1.0049974,4.1820602,4.250244,0.8924309,1.8216428,1.1005566,21.915533,-2.0,-2.0,1.0,10.0,-3.0,6.0,13.0,3.0,10.0,-1.0,13.0,87.0,53.0,17.0,26.0,8.0,239.0,R101,241.0,53.0,-23.0,-266.0,990.0,581.0,-1.3202382,1.0846632,0.7968964,0.59866744,-3.0753064,0.66635096,4.0479956,0.5802484,1.5405912,-0.28699034,1.3209583,2.2915606,2.4649816,1.4009615,0.18585505,1.1775941,13.47479,-4.0,3.0,18.0,-2.0,-2.0,6.0,1.0,8.0,2.0,0.0,17.0,38.0,39.0,26.0,1.0,17.0,168.0
8.117,L101,-246.0,108.0,-62.0,0.0,-737.0,742.0,0.14972906,0.87324756,1.0010482,0.53566635,-1.109089,0.9159696,3.1470196,0.59584934,1.1614425,2.9922156,1.0145017,4.292041,9.112167,2.1613858,6.759003,3.15985,36.76205,-2.0,-3.0,1.0,4.0,-4.0,2.0,10.0,9.0,21.0,40.0,14.0,89.0,96.0,45.0,91.0,46.0,459.0,R101,289.0,11.0,11.0,-16.0,716.0,726.0,-1.3202382,0.8930551,0.77827114,0.66011906,-3.0753064,0.46675768,4.0479956,0.62470526,1.6688238,-0.5658293,1.2455392,2.396417,3.0341156,1.5652046,0.18585505,1.0311154,13.6366005,-4.0,1.0,10.0,0.0,-2.0,3.0,1.0,10.0,-1.0,-2.0,15.0,40.0,46.0,30.0,1.0,16.0,164.0
8.149,L101,-186.0,170.0,4.0,-513.0,194.0,1267.0,0.18552329,0.8282364,1.052079,0.6236984,-0.8445332,0.7159244,3.1185477,0.45960155,1.2111034,6.557431,1.0978341,5.03715,26.082163,6.954435,9.778246,5.861713,68.71915,-1.0,-4.0,3.0,5.0,0.0,-1.0,9.0,4.0,29.0,84.0,19.0,102.0,210.0,144.0,136.0,88.0,827.0,R101,330.0,51.0,28.0,-299.0,389.0,1006.0,-1.4086262,0.79405826,0.7750686,0.6291427,-3.2356255,0.66635096,4.0242467,0.6018505,1.7169374,-0.5658293,1.282413,2.2379744,2.9514747,1.5237316,0.28283086,1.0311154,13.307115,-5.0,0.0,11.0,-1.0,-3.0,6.0,0.0,9.0,-2.0,-2.0,16.0,37.0,45.0,29.0,2.0,16.0,158.0
8.282,L101,2.0,3.0,-6.0,-17.0,8.0,1023.0,0.115675956,0.8282364,1.1070321,1.8151741,-0.7205044,1.4385979,2.9785597,0.30264163,9.916165,11.402977,9.156676,11.05246,48.236366,18.650942,10.048928,12.790134,139.12006,-3.0,-4.0,5.0,20.0,2.0,10.0,4.0,-3.0,149.0,148.0,121.0,181.0,324.0,273.0,140.0,180.0,1547.0,R101,351.0,92.0,61.0,-79.0,-340.0,2230.0,-1.2309331,1.0846632,0.77350503,0.568696,-3.0753064,0.66635096,3.977166,0.5802484,1.7169374,-0.28699034,1.061603,2.2915606,3.2846708,1.360586,0.18585505,1.0311154,13.989728,-3.0,3.0,12.0,-3.0,-2.0,6.0,-2.0,8.0,-2.0,0.0,9.0,38.0,49.0,25.0,1.0,16.0,155.0
8.313,L101,-4.0,1.0,1.0,-8.0,24.0,1001.0,3.9813719,3.8045368,1.8447038,3.0336108,1.1648664,12.819043,8.434724,8.090306,4.601195,12.339206,18.708134,22.596378,6.4875717,5.973521,1.3706472,3.8323214,119.08213,63.0,43.0,25.0,39.0,48.0,164.0,137.0,144.0,87.0,161.0,226.0,282.0,74.0,128.0,21.0,57.0,1699.0,R101,340.0,126.0,179.0,-732.0,-1101.0,2461.0,-0.95849884,0.79405826,0.77350503,0.7235645,-3.2356255,0.5332616,4.000637,0.523243,1.6234243,-0.28699034,1.061603,2.396417,3.3690608,1.6489786,0.18585505,1.0311154,14.183608,0.0,0.0,12.0,2.0,-3.0,4.0,-1.0,5.0,0.0,0.0,9.0,40.0,50.0,32.0,1.0,16.0,167.0
8.346,L101,-7.0,7.0,0.0,-9.0,16.0,1012.0,5.7924094,4.374759,2.7931712,4.51152,1.5253175,15.3766575,11.717569,9.373901,3.1164725,6.476911,12.75236,17.200123,3.477988,2.6105537,1.1860161,1.6480271,103.93376,94.0,50.0,44.0,68.0,60.0,190.0,186.0,163.0,68.0,83.0,159.0,239.0,45.0,56.0,19.0,19.0,1543.0,R101,106.0,140.0,207.0,147.0,-3179.0,1753.0,-1.3202382,0.79405826,0.7735506,0.788982,-3.2356255,0.3338313,3.9538326,0.55992734,1.3779742,-0.15037605,1.1155406,2.0151806,3.0341156,1.6069535,-0.0121766245,1.8683945,13.503925,-4.0,0.0,13.0,4.0,-3.0,1.0,-3.0,7.0,7.0,1.0,11.0,33.0,46.0,31.0,-1.0,22.0,165.0
8.377,L101,-30.0,32.0,1.0,-7.0,7.0,1084.0,6.2763205,4.7983828,4.927692,5.7739663,1.9320737,17.373796,15.541563,12.969585,1.7219117,2.7594016,6.3287516,8.930024,1.8506688,1.693739,0.5193339,1.0059359,94.403145,103.0,55.0,79.0,95.0,73.0,209.0,230.0,213.0,45.0,37.0,92.0,157.0,26.0,34.0,12.0,6.0,1466.0,R101,0.0,46.0,89.0,-189.0,-3180.0,937.0,-1.2309331,0.8930551,0.7750686,0.788982,-3.2356255,0.3338313,4.000637,0.49203193,1.2908818,1.4689251,1.282413,2.2379744,4.415114,1.8198502,0.4729377,1.7356439,17.540787,-3.0,1.0,11.0,4.0,-3.0,1.0,-1.0,3.0,11.0,14.0,16.0,37.0,62.0,36.0,4.0,21.0,214.0
8.409,L101,-79.0,25.0,4.0,-35.0,-8.0,1283.0,5.846939,6.7090483,7.746145,7.5157075,2.1343691,17.590292,15.541563,17.228735,1.4746094,1.2045084,1.7644926,5.5875,1.2634943,1.0927042,0.7131803,0.95922124,94.37251,95.0,76.0,120.0,128.0,79.0,211.0,230.0,263.0,39.0,15.0,36.0,111.0,18.0,21.0,14.0,5.0,1461.0,R101,-280.0,-43.0,94.0,34.0,-537.0,639.0,-1.2309331,0.692807,0.7735506,0.6291427,-3.5658467,0.46675768,4.0242467,0.49203193,1.2908818,3.2158692,1.4029105,3.4525232,6.587765,2.9391465,1.9272367,2.1260629,25.224152,-3.0,-1.0,13.0,-1.0,-5.0,3.0,0.0,3.0,11.0,31.0,19.0,63.0,85.0,60.0,21.0,24.0,323.0
8.443,L101,-129.0,25.0,10.0,-14.0,-65.0,1648.0,5.0049043,8.387328,9.615842,8.903779,2.065618,19.252422,19.215267,17.81197,1.1587968,0.68860215,1.026456,3.911884,1.6231482,0.7363365,0.8090736,0.95922124,101.17064,80.0,93.0,146.0,150.0,77.0,226.0,264.0,269.0,22.0,6.0,15.0,82.0,23.0,14.0,15.0,5.0,1487.0,R101,-195.0,2.0,113.0,43.0,296.0,813.0,-1.2309331,0.9898924,0.77350503,0.69159395,-3.2356255,0.3338313,4.1200867,0.55992734,1.2329419,4.2538314,2.1353674,5.0154533,9.638717,4.566103,5.047025,5.001225,39.89294,-3.0,2.0,12.0,1.0,-3.0,1.0,4.0,7.0,23.0,43.0,33.0,98.0,114.0,90.0,63.0,55.0,540.0
8.476,L101,-205.0,37.0,39.0,325.0,-159.0,1603.0,3.2180698,8.489163,10.27441,10.115277,0.5442065,11.258082,12.505717,17.421066,1.3134402,0.63730115,1.0765477,3.2362866,1.5492356,1.0927042,1.5528215,0.6875268,84.97185,51.0,94.0,155.0,167.0,29.0,147.0,196.0,265.0,12.0,5.0,18.0,69.0,22.0,21.0,23.0,-1.0,1273.0,R101,-356.0,-35.0,13.0,619.0,-7.0,3088.0,-0.95849884,0.8930551,0.7750686,0.7235645,-2.9181287,0.5997927,4.1200867,0.6018505,1.3841316,12.609083,5.7736545,5.6549,37.998856,15.740345,9.617841,7.1836667,99.79927,0.0,1.0,11.0,2.0,-1.0,5.0,4.0,9.0,33.0,169.0,80.0,110.0,295.0,233.0,118.0,114.0,1183.0
8.574,L101,-311.0,30.0,111.0,516.0,-210.0,1993.0,0.9453843,5.592619,9.761666,10.648022,0.061638564,5.2097955,6.3490024,10.063028,1.2844456,1.0821,0.9924446,3.1856108,1.4043623,0.5194591,1.5528215,0.82150817,59.473907,15.0,64.0,148.0,174.0,17.0,69.0,97.0,173.0,13.0,13.0,9.0,68.0,20.0,10.0,23.0,2.0,915.0,R101,-10.0,-6.0,6.0,-107.0,-65.0,1165.0,-0.95849884,0.8930551,0.77517587,0.89075863,-2.7640522,0.40028092,4.0242467,0.5069384,7.9998612,19.63289,8.8084755,11.268289,44.75102,13.643092,12.624782,7.1610518,129.65736,0.0,1.0,14.0,7.0,0.0,2.0,0.0,4.0,137.0,243.0,115.0,181.0,326.0,211.0,149.0,113.0,1503.0
8.604,L101,-410.0,16.0,186.0,521.0,-149.0,2560.0,0.62537456,3.568771,4.281402,5.583004,0.27496618,4.0312257,6.029727,7.8902287,1.5575138,1.2672058,0.99591917,3.4921393,1.6980313,0.62920773,1.6430112,0.86700326,44.43473,9.0,40.0,69.0,91.0,22.0,51.0,90.0,141.0,6.0,16.0,8.0,74.0,24.0,12.0,24.0,3.0,680.0,R101,-6.0,4.0,4.0,-64.0,14.0,987.0,-1.0499684,1.1774578,0.8562051,1.3003229,2.620391,2.2054105,4.0718846,0.4395487,12.603675,23.775667,12.840736,14.919802,34.157455,10.2771435,11.427741,6.5102754,138.13374,-1.0,4.0,23.0,18.0,67.0,29.0,2.0,-2.0,191.0,277.0,164.0,215.0,276.0,172.0,137.0,88.0,1660.0
8.702,L101,-346.0,-35.0,259.0,683.0,1024.0,1849.0,0.26207143,1.2654171,1.4736259,1.208818,-0.9739776,2.2023566,3.4105818,0.8175403,2.0886557,0.27855557,0.99591917,3.1350813,1.6231482,0.29151344,0.42136043,0.7764276,19.277096,1.0,5.0,16.0,12.0,-2.0,22.0,19.0,16.0,-2.0,-3.0,8.0,67.0,23.0,6.0,11.0,1.0,200.0,R101,-4.0,-2.0,-1.0,-68.0,7.0,991.0,-0.58810455,1.1774578,0.8416288,1.2216991,2.620391,5.858419,4.3697925,0.44700068,9.65681,27.053524,15.059331,17.347395,27.825733,9.797215,9.617841,6.3452435,138.65138,4.0,4.0,22.0,16.0,67.0,82.0,14.0,-1.0,157.0,301.0,192.0,236.0,242.0,166.0,118.0,83.0,1703.0
8.737,L101,116.0,-65.0,51.0,614.0,2665.0,-606.0,0.115675956,0.87324756,1.0790735,1.0470686,-1.109089,0.78288835,3.2044446,0.45960155,2.1731606,0.40170717,0.9935302,3.2362866,1.4043623,0.4635567,0.022221994,0.82150817,15.969244,-3.0,-3.0,4.0,10.0,-4.0,0.0,12.0,4.0,-3.0,0.0,11.0,69.0,20.0,9.0,7.0,2.0,135.0,R101,-3.0,-3.0,-3.0,-52.0,18.0,996.0,-0.21431808,1.1774578,0.8562051,1.3003229,1.0635871,8.131935,5.529406,0.6487849,9.237989,24.835442,15.700569,18.292345,22.79551,8.791129,6.838529,6.0426784,131.02757,8.0,4.0,23.0,18.0,36.0,113.0,54.0,11.0,152.0,285.0,200.0,244.0,212.0,153.0,86.0,75.0,1674.0
8.768,L101,282.0,-184.0,12.0,-292.0,572.0,1043.0,0.115675956,0.87324756,1.0260649,1.0470686,-0.9739776,0.64866316,3.2333996,0.5390452,2.1731606,0.5387615,1.0111572,3.858618,2.0070689,0.57467,0.5193339,0.95922124,18.15118,-3.0,-3.0,2.0,10.0,-2.0,-2.0,13.0,7.0,-3.0,3.0,6.0,81.0,28.0,11.0,12.0,5.0,165.0,R101,-3.0,-9.0,-4.0,-54.0,12.0,997.0,1.4885397,1.3574727,0.9273085,1.4629576,0.6196776,9.446789,6.5582247,2.967648,7.918305,21.63134,16.764122,19.96322,16.991486,8.416404,4.4541497,5.681749,126.64938,27.0,6.0,27.0,22.0,30.0,130.0,83.0,62.0,136.0,260.0,213.0,258.0,173.0,148.0,55.0,67.0,1697.0
8.801,L101,290.0,-184.0,265.0,-1003.0,507.0,1665.0,0.14972906,0.87324756,1.0010482,1.208818,-0.9739776,1.0479956,3.2333996,0.59584934,2.0083463,0.3590551,1.0230237,4.6291323,1.4043623,0.5194591,0.7131803,1.3936595,19.186329,-2.0,-3.0,1.0,12.0,-2.0,4.0,13.0,9.0,-1.0,-1.0,5.0,95.0,20.0,10.0,14.0,14.0,188.0,R101,-3.0,-10.0,-2.0,-24.0,14.0,1008.0,3.5462325,3.1494818,0.94815916,1.2216991,0.5395253,10.247873,8.249897,8.789725,4.50416,15.044479,18.846104,27.835072,8.654212,7.687269,1.3579235,6.0010195,126.62284,57.0,30.0,28.0,16.0,29.0,140.0,122.0,155.0,92.0,198.0,237.0,322.0,105.0,138.0,14.0,74.0,1757.0
8.967,L101,-67.0,210.0,79.0,-2621.0,-2170.0,976.0,0.115675956,0.87324756,0.95407593,1.0470686,-0.9739776,0.78288835,3.2625175,0.65562785,1.3456658,0.63730115,1.0765477,4.686414,4.5518746,1.3784666,3.494789,1.4438157,25.331999,-3.0,-3.0,-1.0,10.0,-2.0,0.0,14.0,11.0,11.0,5.0,18.0,96.0,56.0,27.0,46.0,15.0,300.0,R101,-4.0,-8.0,-3.0,-25.0,10.0,1007.0,4.6045194,3.4169607,0.8416288,1.5047237,0.99380946,10.822135,9.011149,9.112486,3.153873,13.001677,17.183071,28.221415,7.6002684,6.5769954,0.8390317,5.12793,122.011665,81.0,34.0,22.0,23.0,35.0,147.0,137.0,160.0,72.0,174.0,218.0,325.0,95.0,122.0,8.0,57.0,1710.0
8.996,L101,-141.0,134.0,55.0,-83.0,51.0,1143.0,0.053066228,0.7841428,0.9770462,0.7963677,-0.7205044,0.98210907,3.2625175,0.45960155,2.1946344,7.4337964,1.0575255,4.0191665,19.248404,1.9943563,7.098086,2.747589,52.38791,-5.0,-5.0,0.0,7.0,2.0,3.0,14.0,4.0,54.0,95.0,17.0,84.0,168.0,41.0,96.0,39.0,614.0,R101,-4.0,-5.0,-2.0,-15.0,9.0,1001.0,4.6045194,3.7509308,0.8416288,1.8092035,1.4501809,11.663277,10.196343,8.341089,2.6210375,10.934291,16.515682,27.07013,5.616367,5.726164,0.7491641,4.27472,116.16472,81.0,39.0,22.0,30.0,42.0,157.0,158.0,148.0,63.0,146.0,210.0,316.0,75.0,109.0,7.0,45.0,1648.0
9.027,L101,-101.0,282.0,-20.0,603.0,-522.0,1467.0,0.08343187,0.7841428,0.9770462,0.8810291,-0.90856284,0.8495664,3.1470196,0.38733146,5.103089,11.97913,3.676074,6.037236,35.474453,9.802649,11.3573265,10.300146,99.931114,-4.0,-5.0,0.0,8.0,-1.0,1.0,10.0,1.0,93.0,156.0,63.0,118.0,262.0,183.0,159.0,149.0,1193.0,R101,-6.0,-3.0,-1.0,-12.0,9.0,1004.0,4.4165444,3.6839662,0.94815916,1.9924934,1.2635258,12.885234,11.469733,8.661201,1.9224021,9.312569,15.059331,25.441164,5.053255,5.1031837,0.5661601,3.2678807,111.0468,76.0,38.0,28.0,34.0,39.0,171.0,178.0,153.0,49.0,121.0,192.0,303.0,69.0,99.0,5.0,34.0,1589.0
9.059,L101,17.0,16.0,-33.0,60.0,-2.0,1118.0,0.115675956,0.87324756,1.0260649,0.53566635,-0.3784427,0.8495664,3.0902352,0.45960155,5.7857947,11.258676,9.156676,9.350634,47.353397,16.118853,9.981134,15.598036,131.1748,-3.0,-3.0,2.0,4.0,8.0,1.0,8.0,4.0,101.0,146.0,121.0,162.0,320.0,250.0,139.0,212.0,1472.0,R101,-145.0,-10.0,-4.0,26.0,-75.0,1860.0,3.4920726,5.5463953,7.0791802,5.315883,2.6571524,10.085888,13.054885,25.311836,1.2908818,0.11738434,1.3209583,2.4477487,2.3064318,1.6069535,-0.21597317,-1.1498079,80.26787,56.0,64.0,141.0,92.0,68.0,138.0,200.0,328.0,11.0,3.0,17.0,41.0,37.0,31.0,-3.0,3.0,1227.0
9.321,L101,1.0,1.0,-60.0,26.0,44.0,1014.0,0.3026972,0.9659907,0.9770462,1.208818,-0.8445332,1.179053,3.0340843,0.41060627,6.0444465,11.763182,9.544907,9.522077,55.648838,21.11619,8.772003,12.3752,142.0206,2.0,-1.0,0.0,12.0,0.0,6.0,6.0,2.0,104.0,153.0,125.0,164.0,356.0,294.0,121.0,175.0,1519.0,R101,237.0,-140.0,9.0,-447.0,194.0,776.0,-0.95849884,1.0846632,0.7783516,0.75602806,-3.2356255,0.79954964,4.0242467,0.6018505,1.6234243,-0.15037605,1.1769611,1.9572105,2.3064318,1.2410948,0.08753522,-0.07694865,12.015897,0.0,3.0,15.0,3.0,-3.0,8.0,0.0,9.0,0.0,1.0,13.0,32.0,37.0,22.0,0.0,9.0,149.0
9.354,L101,0.0,-2.0,-2.0,-153.0,49.0,1004.0,0.115675956,0.9659907,0.9770462,0.8810291,-0.78185743,1.179053,3.062081,0.38733146,7.6062,13.868242,9.834914,9.522077,58.354374,23.351994,9.039363,11.884521,150.24803,-3.0,-1.0,0.0,8.0,1.0,6.0,7.0,1.0,122.0,182.0,128.0,164.0,367.0,312.0,125.0,169.0,1588.0,R101,243.0,-182.0,31.0,-574.0,146.0,927.0,-0.95849884,1.3574727,0.8059905,0.75602806,-3.0753064,0.5997927,4.0479956,0.523243,1.6234243,-0.28699034,1.3209583,2.2915606,2.2278454,1.2806534,-0.0121766245,0.729508,13.231501,0.0,6.0,19.0,3.0,-2.0,5.0,1.0,5.0,0.0,0.0,17.0,38.0,36.0,23.0,-1.0,14.0,164.0
9.387,L101,2.0,-2.0,0.0,6.0,46.0,1002.0,0.14972906,0.9659907,1.052079,1.1284728,-0.7205044,1.0479956,3.0902352,0.36488646,6.7378664,13.207915,9.156676,9.181018,60.122746,22.971022,9.106283,11.803476,149.36589,-2.0,-1.0,3.0,11.0,2.0,4.0,8.0,0.0,112.0,173.0,121.0,160.0,374.0,309.0,126.0,168.0,1568.0,R101,287.0,4.0,190.0,-1464.0,-608.0,1580.0,-1.3202382,1.1774578,0.7735506,0.69159395,-3.0753064,0.5997927,3.977166,0.523243,1.5405912,-0.28699034,1.3209583,2.2915606,2.4649816,1.360586,0.18585505,1.7356439,13.960445,-4.0,4.0,13.0,1.0,-2.0,5.0,-2.0,5.0,2.0,0.0,17.0,38.0,39.0,25.0,1.0,21.0,163.0
9.421,L101,3.0,-2.0,0.0,11.0,50.0,998.0,0.115675956,0.8282364,1.052079,1.0470686,-0.4325028,0.98210907,3.1185477,0.511785,5.357635,13.57351,9.253885,8.847275,59.360275,22.971022,8.705225,11.321423,146.61325,-3.0,-4.0,3.0,10.0,7.0,3.0,9.0,6.0,96.0,178.0,122.0,156.0,371.0,309.0,120.0,162.0,1545.0,R101,296.0,17.0,222.0,-1457.0,-700.0,1751.0,-1.1408108,1.2683654,0.7830491,0.75602806,-2.9181287,0.66635096,3.977166,0.54091585,1.4680909,-0.15037605,1.282413,2.396417,3.5391383,1.4416106,0.3785097,1.4621098,15.750848,-2.0,5.0,16.0,3.0,-1.0,6.0,-2.0,6.0,4.0,1.0,16.0,40.0,52.0,27.0,3.0,19.0,193.0
9.515,L101,0.0,0.0,0.0,10.0,49.0,1000.0,0.14972906,0.87324756,1.0790735,1.5198902,-0.48770285,1.179053,3.0902352,0.32253042,4.767274,13.062408,9.156676,8.930024,58.354374,25.04424,8.304765,11.003918,146.34975,-2.0,-3.0,4.0,16.0,6.0,6.0,8.0,-2.0,89.0,171.0,121.0,157.0,367.0,325.0,114.0,158.0,1535.0,R101,274.0,60.0,265.0,-1609.0,-926.0,1753.0,-1.4086262,1.1774578,0.77350503,0.66011906,-3.0753064,0.5997927,4.0242467,0.5802484,1.5405912,-0.15037605,1.1155406,2.0151806,3.2846708,1.2806534,0.18585505,1.7356439,14.339197,-5.0,4.0,12.0,0.0,-2.0,5.0,0.0,8.0,2.0,1.0,11.0,33.0,49.0,23.0,1.0,21.0,163.0
9.677,L101,-12.0,-7.0,7.0,39.0,41.0,1007.0,0.3026972,1.1621382,1.9347457,2.7992017,2.4246933,11.617355,7.597281,2.7281032,12.0759735,21.362162,16.8431,18.272625,24.56296,7.622569,5.0801897,3.9575717,140.34335,2.0,3.0,27.0,35.0,87.0,151.0,122.0,58.0,175.0,268.0,205.0,248.0,201.0,154.0,67.0,59.0,1862.0,R101,226.0,133.0,311.0,-1478.0,-1084.0,1681.0,-1.1408108,1.1774578,0.77827114,0.69159395,-3.2356255,0.3338313,3.9538326,0.5802484,1.5405912,-0.15037605,1.1769611,1.9572105,3.6248229,1.4009615,0.28283086,1.7356439,14.707445,-2.0,4.0,10.0,1.0,-3.0,1.0,-3.0,8.0,2.0,1.0,13.0,32.0,53.0,26.0,2.0,21.0,166.0
9.905,L101,-21.0,-8.0,19.0,80.0,38.0,1017.0,1.727164,2.7519214,2.9036698,3.3131433,2.6607947,9.95496,9.345675,3.460086,13.230006,18.229076,18.348454,15.036832,13.213715,4.1258044,3.3357117,1.8048427,123.44186,28.0,29.0,46.0,44.0,93.0,132.0,152.0,71.0,189.0,236.0,222.0,220.0,127.0,92.0,44.0,22.0,1747.0,R101,-1.0,-10.0,2.0,-8.0,25.0,1009.0,-0.120884605,1.1774578,0.8164951,1.7644256,2.0372145,5.151636,6.0752697,6.312498,9.071326,13.820255,15.943251,25.19329,16.032925,10.2771435,4.6013722,7.4068446,125.560524,9.0,4.0,20.0,29.0,53.0,72.0,70.0,116.0,150.0,184.0,203.0,301.0,166.0,172.0,57.0,124.0,1730.0
9.972,L101,-33.0,-4.0,66.0,274.0,19.0,1072.0,2.8933523,3.8842988,4.0297294,3.579716,4.49774,10.210004,9.157303,2.8375487,11.002201,9.577079,10.315682,6.575939,6.715076,2.0363848,3.0939713,1.2944504,91.70047,46.0,44.0,65.0,49.0,129.0,135.0,149.0,60.0,162.0,123.0,133.0,126.0,76.0,42.0,41.0,12.0,1392.0,R101,0.0,-6.0,0.0,-7.0,16.0,998.0,0.5261351,2.671903,0.8059905,1.7200705,0.37357467,5.5744076,7.9169965,6.3756933,5.4673104,10.396425,15.218957,26.943548,10.20062,8.342272,2.2393506,7.1154485,111.8887,16.0,23.0,19.0,28.0,27.0,78.0,115.0,117.0,105.0,138.0,194.0,315.0,119.0,147.0,25.0,111.0,1577.0
10.067,L101,249.0,-26.0,169.0,-495.0,556.0,1381.0,0.053066228,0.8282364,1.0010482,0.7105949,-1.0408092,0.7159244,3.062081,0.41060627,1.4623692,0.3179901,1.0408128,3.8055937,0.92940825,1.0434259,1.2786435,0.73176587,16.350758,-5.0,-4.0,1.0,6.0,-3.0,-1.0,7.0,2.0,8.0,-2.0,16.0,80.0,13.0,20.0,20.0,0.0,158.0,R101,-1.0,-5.0,0.0,8.0,21.0,1003.0,0.9742058,2.6019106,0.8164951,1.6761407,-0.17236343,6.0726457,8.698564,6.2493067,5.016331,9.00552,14.900072,26.943548,9.8621855,7.83093,1.9272367,6.9006515,109.30338,21.0,22.0,20.0,27.0,21.0,85.0,131.0,115.0,99.0,116.0,190.0,315.0,116.0,140.0,21.0,102.0,1541.0
10.165,L101,248.0,-59.0,140.0,-510.0,107.0,1638.0,0.14972906,0.87324756,0.9770462,0.1719577,-0.9739776,0.64866316,3.2333996,0.38733146,1.4623692,0.4459035,0.99591917,3.1350813,1.1267163,1.0927042,1.6430112,0.73176587,16.100868,-2.0,-3.0,0.0,0.0,-2.0,-2.0,13.0,1.0,8.0,1.0,8.0,67.0,16.0,21.0,24.0,0.0,150.0,R101,-5.0,-6.0,-1.0,10.0,18.0,1007.0,3.3238995,2.8788168,0.9273085,2.4286761,0.77453697,7.3088455,9.95916,8.725425,3.2164066,6.1975527,13.3166685,26.063751,7.7037897,7.123455,1.5240719,6.3795905,107.85195,53.0,26.0,27.0,43.0,32.0,102.0,154.0,154.0,73.0,70.0,170.0,308.0,96.0,130.0,16.0,84.0,1538.0
10.262,L101,-241.0,40.0,-12.0,-249.0,130.0,2413.0,0.115675956,0.8282364,0.95407593,-0.2107684,-1.1788492,1.0479956,3.0062442,0.34328243,1.4746094,9.278434,4.547586,6.2360935,36.629753,14.061268,10.389285,14.246378,101.769295,-3.0,-4.0,-1.0,-4.0,-5.0,4.0,5.0,-1.0,39.0,119.0,73.0,121.0,268.0,230.0,145.0,197.0,1183.0,R101,-7.0,-5.0,-1.0,19.0,19.0,1012.0,3.4369714,2.8788168,1.2504195,3.3372586,1.6801536,7.755321,11.137202,10.030915,2.1511,5.098818,11.8809185,23.472809,5.807362,5.726164,0.65822107,5.0652957,101.367744,55.0,26.0,39.0,60.0,46.0,108.0,173.0,174.0,54.0,54.0,152.0,287.0,77.0,109.0,6.0,56.0,1476.0
10.294,L101,17.0,4.0,-3.0,-14.0,-63.0,1087.0,0.4794531,0.87324756,1.1070321,0.26464337,-0.9739776,0.7159244,2.9236548,0.34328243,7.6928616,9.278434,8.474003,9.695342,42.860733,17.750427,11.078178,13.466255,126.029495,6.0,-3.0,5.0,1.0,-2.0,-1.0,2.0,-1.0,123.0,119.0,114.0,166.0,299.0,265.0,155.0,188.0,1436.0,R101,-39.0,-33.0,2.0,31.0,-7.0,1087.0,4.530938,3.550366,4.4669843,6.2087975,2.6571524,9.446789,11.881902,22.589676,1.3298384,2.0218422,2.1968937,6.126643,3.5391383,2.9893029,0.18585505,1.6002291,85.32234,79.0,36.0,101.0,105.0,68.0,130.0,184.0,309.0,9.0,19.0,34.0,118.0,52.0,61.0,1.0,20.0,1326.0
10.328,L101,0.0,0.0,0.0,4.0,10.0,1004.0,0.3026972,0.87324756,1.0790735,0.7105949,-1.0408092,1.3740072,2.9236548,0.2836273,10.000291,10.533658,9.156676,10.047328,41.82469,20.159485,11.42747,13.551883,133.20758,2.0,-3.0,4.0,6.0,-3.0,9.0,2.0,-4.0,150.0,136.0,121.0,170.0,294.0,286.0,160.0,189.0,1519.0,R101,-337.0,-154.0,-77.0,-399.0,-251.0,2057.0,2.8970172,3.550366,4.593139,5.517648,-2.4650414,1.5341839,6.330728,12.12117,1.4680909,1.0000433,0.9206464,1.6521019,3.2007153,1.7338593,-0.11332944,-1.5344609,42.40687,46.0,36.0,103.0,95.0,2.0,19.0,77.0,204.0,4.0,10.0,0.0,27.0,48.0,34.0,-2.0,1.0,704.0
10.426,L101,0.0,-2.0,0.0,4.0,18.0,1006.0,0.14972906,0.9659907,1.1965274,1.0470686,-0.9739776,1.8862287,3.1185477,0.32253042,10.419384,12.6278,10.315682,10.958851,44.120636,21.11619,11.42747,13.041864,141.74052,-2.0,-1.0,8.0,10.0,-2.0,17.0,9.0,-2.0,155.0,165.0,133.0,180.0,305.0,294.0,160.0,183.0,1612.0,R101,-325.0,-259.0,-87.0,-802.0,698.0,2917.0,-0.40133697,1.4448645,0.78924006,0.82242346,-2.7640522,0.93285894,4.095915,0.7005093,1.5405912,-0.28699034,0.91407496,1.7773296,1.2493383,1.5237316,-0.11332944,-0.7789142,11.446253,6.0,7.0,17.0,5.0,0.0,10.0,3.0,13.0,2.0,0.0,-2.0,29.0,23.0,29.0,-2.0,5.0,145.0
10.620,L101,0.0,0.0,0.0,9.0,19.0,1000.0,0.14972906,0.87324756,1.1965274,1.0470686,-0.17300975,2.5167255,3.291799,0.41060627,10.252047,12.6278,10.887815,12.812052,43.488384,21.480679,11.287328,12.706693,144.85548,-2.0,-3.0,8.0,10.0,12.0,27.0,15.0,2.0,153.0,165.0,139.0,199.0,302.0,297.0,158.0,179.0,1661.0,R101,253.0,53.0,41.0,-342.0,496.0,822.0,-1.3202382,0.9898924,0.8562051,0.7235645,-3.2356255,0.93285894,3.9075756,0.47855392,1.7169374,-0.4254652,0.9274927,2.183575,1.1774951,1.085563,-0.21597317,-0.07694865,9.705462,-4.0,2.0,23.0,2.0,-3.0,10.0,-5.0,2.0,-2.0,-1.0,1.0,36.0,22.0,18.0,-3.0,9.0,107.0
10.652,L101,-1.0,0.0,0.0,8.0,19.0,1000.0,0.14972906,0.91916835,1.1965274,1.2881181,1.2252418,3.712368,3.6249738,0.62537205,8.983712,13.9422865,12.660721,15.036832,34.712902,18.76499,10.663423,11.803476,139.30984,-2.0,-2.0,8.0,13.0,50.0,46.0,26.0,10.0,138.0,183.0,158.0,220.0,258.0,274.0,149.0,168.0,1697.0,R101,303.0,135.0,52.0,-410.0,-187.0,1415.0,-1.4086262,0.79405826,0.8416288,0.85634995,-3.0753064,0.40028092,4.000637,0.6018505,1.6688238,-0.5658293,0.9206464,2.4983895,1.3216846,1.0094075,-0.11332944,-0.07694865,9.673716,-5.0,0.0,22.0,6.0,-2.0,2.0,-1.0,9.0,-1.0,-2.0,0.0,42.0,24.0,16.0,-2.0,9.0,117.0
10.685,L101,-1.0,1.0,0.0,6.0,16.0,1000.0,0.18552329,1.0137068,1.2941169,1.9572018,1.2252418,4.4831123,3.9793532,1.0721513,8.641462,13.646988,13.929684,15.369126,31.916983,18.31078,10.457656,12.210785,139.69388,-1.0,0.0,11.0,22.0,50.0,58.0,37.0,23.0,134.0,179.0,172.0,223.0,243.0,270.0,146.0,173.0,1740.0,R101,259.0,167.0,74.0,-413.0,-866.0,2118.0,-1.2309331,0.26328647,0.7735506,0.69159395,-3.2356255,0.3338313,3.977166,0.5069384,1.5405912,-0.5658293,0.961709,1.7773296,2.1497214,1.16279,-0.21597317,0.5742951,9.464442,-3.0,-5.0,13.0,1.0,-3.0,1.0,-2.0,4.0,2.0,-2.0,4.0,29.0,35.0,20.0,-3.0,13.0,104.0
11.044,L101,-108.0,27.0,4.0,-34.0,-30.0,1310.0,5.901265,7.094403,7.817135,6.216059,2.620252,21.33857,18.173655,21.639114,1.196416,0.9638952,1.8756841,4.6291323,1.3334224,1.4245921,0.22326112,0.95922124,103.40608,96.0,80.0,121.0,104.0,92.0,244.0,255.0,304.0,28.0,11.0,38.0,95.0,19.0,28.0,9.0,5.0,1529.0,R101,241.0,207.0,90.0,21.0,-1290.0,2006.0,-1.1408108,0.5892044,0.77517587,0.7235645,-3.2356255,0.5332616,3.977166,0.49203193,1.6234243,-0.5658293,0.97752035,1.7773296,2.5449398,1.2410948,-0.21597317,0.09050758,10.186981,-2.0,-2.0,14.0,2.0,-3.0,4.0,-2.0,3.0,0.0,-2.0,5.0,29.0,40.0,22.0,-3.0,10.0,115.0
11.074,L101,-268.0,35.0,18.0,76.0,-81.0,1787.0,2.3060787,7.883076,12.216451,9.040068,0.43255174,10.381583,11.339767,17.71345,1.1614425,0.9638952,1.0145017,2.8843443,1.3334224,1.1897804,0.42136043,0.86700326,81.14879,37.0,88.0,181.0,152.0,26.0,137.0,181.0,268.0,21.0,11.0,14.0,62.0,19.0,23.0,11.0,3.0,1234.0,R101,-247.0,-199.0,13.0,1860.0,-1803.0,990.0,-1.0499684,0.5892044,0.7735506,0.9256469,-3.0753064,0.5997927,4.0242467,0.54091585,1.2908818,2.6407595,1.7901826,3.3672721,7.0888658,2.3592594,2.0843077,2.3735516,26.323164,-1.0,-2.0,13.0,8.0,-2.0,5.0,0.0,6.0,11.0,25.0,27.0,61.0,90.0,48.0,23.0,26.0,338.0
11.172,L101,370.0,-109.0,7.0,76.0,-17.0,1437.0,0.08343187,0.8282364,0.9770462,0.35614976,-1.109089,0.7159244,3.1185477,0.48530015,2.0083463,0.3179901,1.0021396,3.9653978,0.86577916,0.4635567,0.9988511,0.7764276,15.854034,-4.0,-4.0,0.0,2.0,-4.0,-1.0,9.0,5.0,-1.0,-2.0,7.0,83.0,12.0,9.0,17.0,1.0,129.0,R101,0.0,0.0,-2.0,6.0,26.0,993.0,-0.49478763,1.1774578,0.7830491,1.0699425,-3.0753064,0.3338313,4.0242467,0.45600685,6.1606994,16.560024,9.234837,13.363855,36.76183,15.641712,12.422601,7.8822265,122.302216,5.0,4.0,16.0,12.0,-2.0,1.0,0.0,0.0,114.0,214.0,120.0,201.0,289.0,232.0,147.0,144.0,1497.0
11.269,L101,343.0,-135.0,2.0,-29.0,-139.0,1892.0,0.053066228,0.8282364,0.95407593,0.53566635,-0.9739776,1.0479956,3.1470196,0.48530015,2.2619362,0.3179901,0.99591917,3.3892727,0.86577916,0.3496027,0.8090736,0.82150817,15.888465,-5.0,-4.0,-1.0,4.0,-2.0,4.0,10.0,5.0,-4.0,-2.0,8.0,72.0,12.0,7.0,15.0,2.0,121.0,R101,-2.0,-3.0,-2.0,4.0,25.0,995.0,-0.774036,0.79405826,0.8562051,0.89075863,-3.2356255,0.3338313,4.095915,0.91622525,7.1902905,18.417477,11.8809185,18.767773,29.799448,14.864156,10.36636,7.755572,122.91933,2.0,0.0,23.0,7.0,-3.0,1.0,3.0,20.0,127.0,232.0,152.0,248.0,253.0,224.0,126.0,139.0,1554.0
11.302,L101,215.0,-132.0,-40.0,-861.0,-1817.0,2315.0,0.26207143,0.87324756,0.9770462,0.4464872,-0.9739776,0.9159696,3.2333996,0.45960155,1.9321578,0.3590551,0.9924446,3.8055937,1.2634943,0.5194591,1.3706472,1.1484545,17.585152,1.0,-3.0,0.0,3.0,-2.0,2.0,13.0,4.0,0.0,-1.0,9.0,80.0,18.0,10.0,21.0,9.0,164.0,R101,-4.0,-6.0,-2.0,6.0,24.0,1001.0,-1.2309331,0.8930551,0.7830491,0.85634995,-2.4650414,1.6011511,4.7730107,3.3224134,9.7409525,17.161106,14.34481,22.377075,24.087334,14.013314,8.184265,7.6351624,126.07707,-3.0,1.0,16.0,6.0,2.0,20.0,29.0,68.0,158.0,220.0,183.0,278.0,220.0,215.0,102.0,134.0,1649.0
11.334,L101,154.0,17.0,-49.0,-1094.0,-2861.0,1654.0,0.26207143,0.87324756,1.0010482,0.26464337,-0.9739776,0.9159696,3.2044446,0.36488646,1.7275879,0.27855557,1.0021396,3.6479025,1.059888,0.68309057,0.9988511,1.0530491,16.363396,1.0,-3.0,1.0,1.0,-2.0,2.0,12.0,0.0,3.0,-3.0,7.0,77.0,15.0,13.0,17.0,7.0,148.0,R101,-10.0,-7.0,-3.0,7.0,15.0,1028.0,3.2659073,3.550366,1.017704,1.5469275,0.4575044,6.941047,8.010716,7.1977553,6.3956547,13.652897,17.437696,28.610657,8.654212,7.123455,1.6872956,6.31018,121.85998,52.0,36.0,31.0,24.0,28.0,97.0,117.0,130.0,117.0,182.0,221.0,328.0,105.0,130.0,18.0,82.0,1698.0
11.367,L101,-28.0,0.0,0.0,-344.0,-3529.0,1000.0,0.14972906,0.91916835,0.95407593,0.4464872,-1.0408092,1.3092263,3.1756516,0.38733146,1.5575138,0.49160206,0.9924446,3.4406135,1.9284034,1.4703304,1.1860161,1.4438157,18.811602,-2.0,-2.0,-1.0,3.0,-3.0,8.0,11.0,1.0,6.0,2.0,9.0,73.0,27.0,29.0,19.0,15.0,195.0,R101,-20.0,-5.0,-5.0,-2.0,5.0,1051.0,4.9468446,4.1571116,1.186192,1.7644256,2.0372145,9.289146,10.256517,13.581122,2.6773777,6.955314,11.800293,20.203325,4.686109,3.9957566,0.5661601,3.469057,101.57197,91.0,45.0,37.0,29.0,53.0,128.0,159.0,223.0,64.0,82.0,151.0,260.0,65.0,80.0,5.0,36.0,1508.0
11.399,L101,-237.0,62.0,-34.0,240.0,337.0,1123.0,0.3883432,0.87324756,0.9770462,0.1719577,-1.109089,1.0479956,3.1470196,0.36488646,1.1587968,2.606189,1.1470188,5.03715,6.944909,2.202734,5.9324374,3.15985,34.05049,4.0,-3.0,0.0,0.0,-4.0,4.0,10.0,0.0,22.0,35.0,21.0,102.0,78.0,46.0,79.0,46.0,440.0,R101,-46.0,-47.0,-10.0,-24.0,-22.0,1228.0,5.0114436,4.3643737,3.487312,3.0044339,3.3259125,12.442611,13.764867,25.010246,1.3779742,2.540784,3.7707136,6.1883717,2.787521,1.9509249,0.28283086,1.8683945,91.17871,93.0,48.0,85.0,54.0,88.0,166.0,209.0,326.0,7.0,24.0,56.0,119.0,43.0,39.0,2.0,22.0,1381.0
11.433,L101,-187.0,91.0,-39.0,-57.0,-106.0,990.0,0.115675956,0.7841428,1.052079,0.26464337,-0.60164267,0.8495664,3.1756516,0.34328243,1.4746094,5.338715,1.1748288,4.8019643,15.783008,5.044064,13.689013,7.9760213,61.265617,-3.0,-5.0,3.0,1.0,4.0,1.0,11.0,-1.0,39.0,69.0,22.0,98.0,145.0,111.0,191.0,118.0,804.0,R101,-188.0,-62.0,-13.0,-22.0,-43.0,1543.0,4.2556195,5.1607394,5.5576186,4.2237577,2.7646146,10.656877,13.8461,33.52324,1.4356092,1.4689251,1.4910963,3.4099627,3.0341156,1.7767159,0.5661601,-0.9626641,92.208496,72.0,59.0,118.0,75.0,71.0,145.0,210.0,375.0,5.0,14.0,21.0,62.0,46.0,35.0,5.0,4.0,1317.0
11.464,L101,-295.0,23.0,-20.0,-213.0,64.0,2163.0,0.053066228,0.91916835,0.95407593,0.07808286,-0.60164267,0.7159244,3.1470196,0.511785,1.5115868,9.052917,4.7286544,6.855551,50.94113,17.86184,9.57603,9.007545,115.31274,-5.0,-2.0,-1.0,-1.0,4.0,-1.0,10.0,6.0,40.0,116.0,75.0,130.0,336.0,266.0,133.0,132.0,1238.0,R101,-295.0,-85.0,-40.0,-99.0,24.0,2079.0,2.125266,3.8180509,6.7451286,5.116762,-0.6872919,3.2200294,8.801535,25.311836,1.7678099,1.0000433,0.9954594,2.3443644,3.453884,1.6069535,1.0157061,0.254838,66.89038,35.0,40.0,136.0,89.0,16.0,44.0,133.0,328.0,-3.0,10.0,6.0,39.0,51.0,31.0,10.0,11.0,976.0
11.497,L101,2.0,4.0,-4.0,-6.0,-41.0,1069.0,0.34480792,0.8282364,1.052079,1.0470686,-0.60164267,0.98210907,3.0340843,0.30264163,7.2591105,9.79962,9.059377,9.265597,53.027386,22.593468,10.457656,10.846278,139.29788,3.0,-4.0,3.0,10.0,4.0,3.0,6.0,-3.0,118.0,126.0,120.0,161.0,345.0,306.0,146.0,156.0,1500.0,R101,-445.0,-103.0,-64.0,-317.0,-29.0,2178.0,3.90013,3.8180509,5.5576186,4.599022,-0.57966906,2.4749641,7.552955,9.96443,1.405584,0.37804067,0.97752035,1.7773296,3.1171963,1.9069545,1.1885669,-1.3403915,46.698296,64.0,40.0,118.0,81.0,17.0,33.0,107.0,173.0,6.0,5.0,5.0,29.0,47.0,38.0,12.0,2.0,777.0
11.597,L101,-1.0,-1.0,0.0,-7.0,24.0,1001.0,0.115675956,0.87324756,1.1657752,1.8151741,-1.109089,1.5030082,2.9510303,0.41060627,10.669682,11.835169,9.931336,10.047328,51.400352,23.224619,10.457656,11.401273,146.69284,-3.0,-3.0,7.0,20.0,-4.0,11.0,3.0,2.0,158.0,154.0,129.0,170.0,338.0,311.0,146.0,163.0,1602.0,R101,131.0,-1.0,145.0,-1424.0,3092.0,-374.0,-1.1408108,1.6975665,0.7830491,0.7235645,-3.2356255,0.5332616,4.095915,0.72810054,1.7169374,-0.28699034,0.9954594,2.0722098,2.2278454,1.4009615,1.1885669,-0.7789142,12.721097,-2.0,10.0,16.0,2.0,-3.0,4.0,3.0,14.0,-2.0,0.0,6.0,34.0,36.0,26.0,12.0,5.0,161.0
11.629,L101,-1.0,0.0,0.0,-1.0,32.0,1001.0,0.08343187,0.9659907,1.0790735,2.163584,-1.0408092,2.4539425,3.0902352,0.34328243,12.240652,12.700068,11.077273,12.5091095,44.97092,21.971628,9.57603,10.925007,145.10942,-4.0,-1.0,4.0,25.0,-3.0,26.0,8.0,-1.0,177.0,166.0,141.0,196.0,309.0,301.0,133.0,157.0,1634.0,R101,193.0,69.0,106.0,-545.0,1033.0,775.0,-1.2309331,0.8930551,0.77517587,0.7235645,-3.0753064,0.8661904,4.1200867,0.47855392,1.6688238,-0.5658293,0.961709,1.838318,1.766131,1.2410948,1.0157061,-0.7789142,10.697426,-3.0,1.0,14.0,2.0,-2.0,9.0,4.0,2.0,-1.0,-2.0,4.0,30.0,30.0,22.0,10.0,5.0,125.0
11.662,L101,-2.0,0.0,0.0,-6.0,31.0,1002.0,0.14972906,0.91916835,1.052079,2.4270191,-0.07636962,3.018574,3.6249738,0.43469995,11.250794,13.646988,13.660171,15.70494,33.024166,17.639343,8.504972,9.838668,134.81992,-2.0,-2.0,3.0,29.0,14.0,35.0,26.0,3.0,165.0,179.0,169.0,226.0,249.0,264.0,117.0,143.0,1618.0,R101,265.0,59.0,26.0,-58.0,892.0,708.0,-1.1408108,0.9898924,0.77517587,0.7235645,-3.2356255,0.66635096,4.0718846,0.54091585,1.7678099,-0.7081114,0.97752035,2.1283307,1.9181497,1.2018073,0.3785097,-0.7789142,10.276449,-2.0,2.0,14.0,2.0,-3.0,6.0,2.0,6.0,-3.0,-3.0,5.0,35.0,32.0,21.0,3.0,5.0,122.0
11.693,L101,-5.0,1.0,0.0,-11.0,22.0,1000.0,0.34480792,0.9659907,1.3634664,3.579716,1.2553014,10.12468,6.97625,8.965254,5.528382,13.062408,17.991377,21.15014,12.114367,10.297954,3.494789,6.6214466,123.83632,3.0,-1.0,13.0,49.0,51.0,134.0,110.0,157.0,98.0,171.0,218.0,271.0,119.0,189.0,46.0,99.0,1727.0,R101,329.0,37.0,-11.0,-18.0,671.0,1088.0,-1.1408108,0.48315126,0.7897148,0.788982,-3.2356255,0.93285894,3.977166,0.5069384,1.7678099,-0.7081114,0.97752035,2.2915606,1.6908393,1.2806534,0.3785097,0.254838,11.035995,-2.0,-3.0,8.0,4.0,-3.0,10.0,-2.0,4.0,-3.0,-3.0,5.0,38.0,29.0,23.0,3.0,11.0,119.0
11.726,L101,-6.0,1.0,1.0,-11.0,18.0,1005.0,0.88976693,1.2654171,1.7146137,2.858772,1.1648664,12.165525,8.729899,9.101102,4.354759,12.339206,18.43811,23.404924,9.616471,8.044095,2.0853581,5.5901785,121.76306,14.0,5.0,22.0,36.0,48.0,157.0,142.0,159.0,84.0,161.0,223.0,288.0,100.0,160.0,29.0,84.0,1712.0,R101,359.0,102.0,-42.0,-186.0,343.0,1253.0,-0.86649245,0.79405826,0.7750686,0.85634995,-3.0753064,0.66635096,3.9538326,0.47855392,1.7678099,-0.7081114,0.9954594,2.2379744,2.3064318,1.4009615,0.65822107,-0.07694865,12.164214,1.0,0.0,11.0,6.0,-2.0,6.0,-3.0,2.0,-3.0,-3.0,6.0,37.0,37.0,26.0,6.0,9.0,136.0
11.854,L101,-5.0,0.0,2.0,-11.0,13.0,1006.0,2.3060787,1.9541074,2.0273232,2.6163769,0.85268205,10.641277,8.035142,9.924321,3.7170453,11.619169,17.813663,23.269182,7.177032,7.41762,1.4620366,4.923165,115.75622,37.0,17.0,29.0,32.0,38.0,140.0,130.0,171.0,76.0,151.0,216.0,287.0,80.0,151.0,22.0,74.0,1651.0,R101,313.0,243.0,54.0,56.0,-2060.0,2706.0,-1.2309331,0.692807,0.77517587,0.89075863,-3.0753064,0.40028092,3.9538326,0.5069384,1.7169374,-0.5658293,1.1155406,2.1283307,2.7062116,1.360586,0.28283086,0.41608608,12.074249,-3.0,-1.0,14.0,7.0,-2.0,2.0,-3.0,4.0,-2.0,-2.0,11.0,35.0,42.0,25.0,2.0,12.0,141.0
12.147,L101,-68.0,131.0,-19.0,454.0,2967.0,394.0,0.18552329,0.87324756,1.0260649,0.7105949,-1.1788492,0.98210907,3.3806357,0.48530015,2.0886557,0.40170717,1.0408128,2.8345199,0.6222699,0.23265727,0.6166038,0.7764276,15.078279,-1.0,-3.0,2.0,6.0,-5.0,3.0,18.0,5.0,-2.0,0.0,16.0,61.0,8.0,5.0,13.0,1.0,127.0,R101,129.0,129.0,136.0,1444.0,-3686.0,2090.0,-1.2309331,0.48315126,0.77350503,0.96101207,-3.2356255,0.3338313,3.9538326,0.523243,1.5030708,0.37804067,1.1769611,2.3443644,3.6248229,1.4009615,0.28283086,-0.24757458,13.025495,-3.0,-3.0,12.0,9.0,-3.0,1.0,-3.0,5.0,3.0,5.0,13.0,39.0,53.0,26.0,2.0,8.0,164.0
12.214,L101,353.0,-33.0,-31.0,728.0,299.0,781.0,0.115675956,0.91916835,1.0260649,0.96459174,-0.9739776,3.967221,3.1470196,0.38733146,2.0083463,0.24079579,0.9935302,3.6479025,0.92940825,0.23265727,0.6166038,0.82150817,19.043848,-3.0,-2.0,2.0,9.0,-2.0,50.0,10.0,1.0,-1.0,-4.0,11.0,77.0,13.0,5.0,13.0,2.0,181.0,R101,-175.0,-106.0,27.0,936.0,-4893.0,1566.0,-1.1408108,0.692807,0.77517587,0.85634995,-3.2356255,0.3338313,4.000637,0.5069384,1.3298384,2.4395688,1.5374354,3.3672721,6.687163,2.312766,1.4413807,0.729508,22.634237,-2.0,-1.0,14.0,6.0,-3.0,1.0,-1.0,4.0,9.0,23.0,22.0,61.0,86.0,47.0,15.0,14.0,295.0
12.244,L101,343.0,-99.0,8.0,-75.0,420.0,935.0,0.14972906,0.87324756,1.0260649,1.1284728,-0.9739776,0.8495664,3.1756516,0.43469995,2.1731606,0.3179901,1.0049974,3.287117,1.2634943,0.29151344,0.6166038,0.82150817,16.43984,-2.0,-3.0,2.0,11.0,-2.0,1.0,11.0,3.0,-3.0,-2.0,13.0,70.0,18.0,6.0,13.0,2.0,138.0,R101,-269.0,-84.0,1.0,-96.0,-202.0,1391.0,-0.95849884,0.8930551,0.7968964,0.66011906,-2.7640522,0.2010139,4.095915,0.72810054,1.260994,6.955314,2.7248724,4.915986,32.033783,14.294162,8.979994,7.1154485,81.933105,0.0,1.0,18.0,0.0,0.0,-1.0,3.0,14.0,26.0,82.0,42.0,96.0,265.0,218.0,111.0,111.0,986.0
12.280,L101,382.0,-88.0,-4.0,-127.0,360.0,1324.0,0.115675956,0.91916835,1.1657752,1.1284728,-1.0408092,0.7159244,3.1185477,0.41060627,2.0886557,0.3179901,0.9924446,3.33811,1.4043623,0.4635567,0.8090736,0.7764276,16.723982,-3.0,-2.0,7.0,11.0,-3.0,-1.0,9.0,2.0,-2.0,-2.0,9.0,71.0,20.0,9.0,15.0,1.0,141.0,R101,-1.0,-3.0,-2.0,-6.0,27.0,997.0,-0.58810455,1.0846632,0.7830491,1.0699425,-2.6130366,0.5997927,4.095915,0.6018505,9.321505,15.227045,12.20234,16.064434,30.905945,15.445413,9.98955,8.016547,122.20685,4.0,3.0,16.0,12.0,1.0,5.0,3.0,9.0,153.0,200.0,156.0,225.0,259.0,230.0,122.0,149.0,1547.0
12.310,L101,368.0,-141.0,23.0,-178.0,77.0,1711.0,0.08343187,0.87324756,1.0790735,0.7105949,-0.9739776,1.179053,3.291799,0.41060627,2.0886557,0.3179901,1.0021396,3.287117,1.6231482,0.23265727,0.8090736,0.86700326,16.881613,-4.0,-3.0,4.0,6.0,-2.0,6.0,15.0,2.0,-2.0,-2.0,7.0,70.0,23.0,5.0,15.0,3.0,143.0,R101,-3.0,-6.0,-1.0,2.0,22.0,1003.0,-0.02758699,0.8930551,0.7830491,0.7235645,-1.1422131,2.9483964,5.2751517,5.4285636,9.321505,15.135519,16.105862,21.408197,18.117191,13.187046,6.4356937,7.565282,122.15828,10.0,1.0,16.0,2.0,12.0,40.0,46.0,102.0,153.0,199.0,205.0,270.0,181.0,206.0,81.0,131.0,1655.0
12.406,L101,297.0,-185.0,-65.0,-160.0,-1605.0,2862.0,0.14972906,0.87324756,1.0010482,0.6236984,-0.90856284,0.98210907,3.1470196,0.36488646,2.0083463,0.4459035,1.0230237,3.7528043,1.4763035,0.29151344,0.6166038,0.86700326,16.714676,-2.0,-3.0,1.0,5.0,-1.0,3.0,10.0,0.0,-1.0,1.0,5.0,79.0,21.0,6.0,13.0,3.0,140.0,R101,-4.0,-8.0,-3.0,6.0,19.0,1004.0,-0.120884605,1.2683654,0.7830491,0.9256469,-0.17236343,3.9032226,6.2935867,7.3877025,8.409523,15.692009,17.352531,24.45309,14.445695,11.520562,5.047025,7.3177814,124.50654,9.0,5.0,16.0,8.0,21.0,54.0,76.0,133.0,142.0,205.0,220.0,295.0,154.0,187.0,63.0,120.0,1708.0
12.439,L101,193.0,-66.0,-113.0,-1452.0,-3123.0,2136.0,0.14972906,0.91916835,1.0010482,0.53566635,-0.9739776,0.98210907,3.1756516,0.30264163,1.8600168,0.3590551,1.026456,3.6479025,1.4763035,0.68309057,0.7131803,0.7764276,16.634468,-2.0,-2.0,1.0,4.0,-2.0,3.0,11.0,-3.0,1.0,-1.0,15.0,77.0,21.0,13.0,14.0,1.0,151.0,R101,-7.0,-8.0,-3.0,10.0,16.0,1010.0,-0.02758699,2.1672602,0.9701911,1.1448987,0.6980015,5.7872458,6.7540383,8.597048,6.7115126,13.736345,19.213802,27.196959,9.9745655,9.404809,2.991825,6.974419,122.29534,10.0,16.0,29.0,14.0,31.0,81.0,88.0,152.0,121.0,183.0,241.0,317.0,117.0,161.0,35.0,105.0,1701.0
