#time,left.insoleId,left.ang.x,left.ang.y,left.ang.z,left.acc.x,left.acc.y,left.acc.z,left.forces.0,left.forces.1,left.forces.2,left.forces.3,left.forces.4,left.forces.5,left.forces.6,left.forces.7,left.forces.8,left.forces.12,left.forces.13,left.forces.14,left.forces.17,left.forces.18,left.forces.21,left.forces.22,left.totalForce,left.rawForces.0,left.rawForces.1,left.rawForces.2,left.rawForces.3,left.rawForces.4,left.rawForces.5,left.rawForces.6,left.rawForces.7,left.rawForces.8,left.rawForces.12,left.rawForces.13,left.rawForces.14,left.rawForces.17,left.rawForces.18,left.rawForces.21,left.rawForces.22,left.totalRawForce,right.insoleId,right.ang.x,right.ang.y,right.ang.z,right.acc.x,right.acc.y,right.acc.z,right.forces.0,right.forces.1,right.forces.2,right.forces.3,right.forces.4,right.forces.5,right.forces.6,right.forces.7,right.forces.8,right.forces.12,right.forces.13,right.forces.14,right.forces.17,right.forces.18,right.forces.21,right.forces.22,right.totalForce,right.rawForces.0,right.rawForces.1,right.rawForces.2,right.rawForces.3,right.rawForces.4,right.rawForces.5,right.rawForces.6,right.rawForces.7,right.rawForces.8,right.rawForces.12,right.rawForces.13,right.rawForces.14,right.rawForces.17,right.rawForces.18,right.rawForces.21,right.rawForces.22,right.totalRawForce
0.035,L101,-51.0,-7.0,12.0,4.0,-50.0,1138.0,6.434615,9.946519,5.0595255,4.1792974,7.1519723,31.16179,50.55183,26.974577,9.239309,5.7471247,9.641694,4.860243,0.68147284,0.5194591,-0.18184212,0.73176587,172.69936,106.0,108.0,81.0,61.0,165.0,318.0,426.0,343.0,141.0,74.0,126.0,99.0,9.0,10.0,5.0,0.0,2072.0,R101,93.0,73.0,-82.0,496.0,-1726.0,1166.0,-1.2309331,1.0846632,0.7897148,0.7235645,-3.0753064,0.26740894,4.0718846,0.5069384,1.5806947,0.11738434,0.9206464,-0.4934752,-0.024885884,0.7153573,0.5661601,-1.3403915,5.1794257,-3.0,3.0,8.0,2.0,-2.0,0.0,2.0,4.0,1.0,3.0,0.0,1.0,4.0,8.0,5.0,2.0,38.0
0.049,L101,-71.0,-10.0,12.0,4.0,-79.0,1126.0,7.5728693,10.587613,5.2586966,5.1151457,7.7610216,36.939354,65.624435,33.96373,7.519489,4.60182,5.4701347,2.339589,0.5642031,0.57467,-0.49379984,0.73176587,194.13074,128.0,114.0,84.0,81.0,172.0,354.0,471.0,383.0,121.0,60.0,83.0,51.0,7.0,11.0,2.0,0.0,2122.0,R101,54.0,12.0,-52.0,365.0,-1824.0,968.0,-0.95849884,1.0846632,0.783143,0.82242346,-3.2356255,0.66635096,4.0479956,0.5802484,1.5806947,-0.015593896,0.93664944,-0.28676605,0.037163474,0.7153573,0.5661601,-1.1498079,6.1745567,0.0,3.0,9.0,5.0,-3.0,6.0,1.0,8.0,1.0,2.0,2.0,3.0,5.0,8.0,5.0,3.0,58.0
0.191,L101,-123.0,-8.0,10.0,15.0,-164.0,1164.0,8.304629,12.672853,5.526721,6.7869477,5.575401,40.17905,85.51394,43.3832,2.765595,3.2281487,2.178656,0.8622928,0.6222699,0.17301486,-0.59939283,0.6875268,217.86086,142.0,133.0,88.0,115.0,145.0,372.0,517.0,425.0,63.0,43.0,43.0,22.0,8.0,4.0,1.0,-1.0,2120.0,R101,-50.0,1.0,-66.0,106.0,-1706.0,810.0,-0.95849884,1.0846632,0.783143,0.75602806,-3.2356255,0.79954964,4.0479956,0.523243,1.5405912,0.37804067,0.9274927,-0.38909772,0.16301422,0.8602836,0.5661601,-0.24757458,7.599408,0.0,3.0,9.0,3.0,-3.0,8.0,1.0,5.0,2.0,5.0,1.0,2.0,7.0,12.0,5.0,8.0,68.0
0.206,L101,-157.0,-5.0,12.0,20.0,-218.0,1179.0,9.300762,13.233821,6.5528154,8.184429,3.743883,32.375484,73.22306,40.682457,3.0446296,2.4547694,1.5608052,0.5312053,0.99411494,0.112566754,-0.49379984,0.60033345,196.10133,160.0,138.0,103.0,139.0,116.0,326.0,490.0,414.0,67.0,33.0,32.0,16.0,14.0,3.0,2.0,-3.0,2050.0,R101,-186.0,-173.0,-5.0,299.0,-336.0,838.0,-1.0499684,1.0846632,0.77350503,0.85634995,-3.2356255,0.8661904,4.0479956,0.62470526,1.3527391,2.1282513,0.97752035,0.28637108,2.4649816,1.2018073,6.0407896,6.8240476,25.244324,-1.0,3.0,12.0,6.0,-3.0,9.0,1.0,10.0,8.0,20.0,5.0,9.0,39.0,21.0,76.0,99.0,314.0
0.242,L101,-254.0,12.0,25.0,64.0,-417.0,1361.0,8.4651785,13.799287,8.531232,11.768263,2.3496442,14.269712,23.09278,20.23779,2.1367946,1.2672058,1.0145017,0.4746641,2.8428793,0.7363365,-0.18184212,0.6875268,111.49196,145.0,143.0,131.0,188.0,85.0,179.0,294.0,292.0,53.0,16.0,14.0,15.0,38.0,14.0,5.0,-1.0,1611.0,R101,-107.0,-113.0,57.0,-352.0,565.0,1034.0,-0.86649245,1.1774578,0.7750686,0.85634995,-3.0753064,0.9995556,4.0479956,0.5069384,1.2223802,2.0218422,1.0876157,0.87444043,6.887192,2.7903695,12.321901,9.008195,40.6355,1.0,4.0,11.0,6.0,-2.0,11.0,1.0,4.0,18.0,19.0,10.0,16.0,88.0,57.0,146.0,178.0,568.0
0.297,L101,-358.0,-100.0,34.0,263.0,-1123.0,2422.0,5.1203575,7.883076,3.721521,4.7909904,0.820021,4.353264,5.9851313,3.1164157,1.1995357,0.7950735,1.0230237,0.36030018,0.39694083,0.29151344,-0.38901776,0.60033345,40.068485,82.0,88.0,60.0,74.0,37.0,56.0,89.0,65.0,17.0,8.0,5.0,13.0,4.0,6.0,3.0,-3.0,604.0,R101,-278.0,-113.0,43.0,349.0,219.0,2188.0,-0.58810455,0.9898924,0.77827114,0.82242346,-2.4650414,0.79954964,4.000637,0.523243,1.2260028,6.0007005,2.3877184,2.3443644,20.316986,8.640426,20.277752,14.748746,80.80357,4.0,2.0,10.0,5.0,2.0,8.0,-1.0,5.0,17.0,67.0,37.0,39.0,196.0,151.0,219.0,260.0,1021.0
0.350,L101,-280.0,-88.0,26.0,65.0,-554.0,2540.0,2.501676,4.127018,2.2197025,2.9759593,-0.3784427,1.8862287,3.5628576,0.65562785,1.6671574,0.27855557,1.1903547,-0.17807701,0.24034686,0.0512933,0.123114325,0.6875268,21.610899,40.0,47.0,33.0,38.0,8.0,17.0,24.0,11.0,4.0,-3.0,-2.0,4.0,1.0,2.0,8.0,-1.0,231.0,R101,-15.0,-10.0,1.0,-7.0,9.0,1015.0,0.8858494,0.9898924,0.8666115,0.9968515,-1.2622584,3.4243383,4.243103,1.2204866,1.7584327,9.941459,5.9466267,4.8183327,26.43438,13.0067,23.303587,15.573955,112.148346,20.0,2.0,2.0,10.0,11.0,47.0,9.0,28.0,45.0,131.0,82.0,94.0,234.0,204.0,244.0,268.0,1431.0
0.453,L101,187.0,16.0,80.0,-62.0,547.0,380.0,0.115675956,0.91916835,0.95407593,0.7105949,-0.78185743,0.58109325,3.1756516,0.36488646,1.7918508,0.3179901,1.2269567,-0.05480285,0.34354064,-0.13767837,0.022221994,0.6875268,10.236894,-3.0,-2.0,-1.0,6.0,1.0,-3.0,11.0,0.0,2.0,-2.0,-3.0,6.0,3.0,-1.0,7.0,-1.0,20.0,R101,-7.0,-4.0,-1.0,-19.0,19.0,1013.0,1.7343367,1.1774578,0.8666115,0.9968515,-1.1422131,3.9719021,4.3955803,1.179462,2.510699,11.709714,6.3807435,5.379094,29.25415,14.106626,24.964258,17.247482,124.73276,30.0,4.0,2.0,10.0,12.0,55.0,15.0,27.0,61.0,157.0,87.0,105.0,250.0,216.0,257.0,283.0,1571.0
0.508,L101,283.0,11.0,15.0,31.0,572.0,733.0,0.18552329,0.91916835,0.91130126,0.4464872,-0.8445332,0.7159244,3.1185477,0.34328243,2.0083463,0.27855557,1.2269567,0.06630566,0.2913384,-0.13767837,0.022221994,0.82150817,10.373256,-1.0,-2.0,-3.0,3.0,0.0,-1.0,9.0,-1.0,-1.0,-3.0,-3.0,8.0,2.0,-1.0,7.0,2.0,15.0,R101,-1.0,0.0,-1.0,-19.0,25.0,997.0,1.5713685,1.2683654,0.90729773,1.1830697,-0.4744062,3.629187,4.4738617,0.81747633,3.153873,12.764818,6.9033785,5.0154533,29.98239,14.864156,25.35775,16.223753,127.6418,28.0,5.0,0.0,15.0,18.0,50.0,18.0,17.0,72.0,171.0,93.0,98.0,254.0,224.0,260.0,274.0,1597.0
0.559,L101,314.0,-15.0,-10.0,249.0,80.0,1218.0,0.14972906,1.1117884,0.9321551,0.4464872,-0.66044307,0.64866316,3.0062442,0.34328243,1.7918508,0.3179901,1.2669028,0.3024515,0.14204775,-0.13767837,0.123114325,0.86700326,10.651589,-2.0,2.0,-2.0,3.0,3.0,-2.0,5.0,-1.0,2.0,-2.0,-4.0,12.0,-1.0,-1.0,8.0,3.0,23.0,R101,-3.0,0.0,-1.0,-18.0,27.0,998.0,2.2747612,1.3574727,0.88597476,0.9256469,-0.57966906,4.040653,4.8295126,0.8823086,3.8727617,13.487376,6.641946,5.379094,28.893547,14.577766,22.92972,13.97107,124.36994,37.0,6.0,1.0,8.0,17.0,56.0,31.0,19.0,83.0,180.0,90.0,105.0,248.0,221.0,241.0,252.0,1595.0
0.613,L101,340.0,-26.0,-15.0,214.0,-69.0,1792.0,0.22299235,1.0623085,0.95407593,0.35614976,-0.4325028,0.64866316,3.0340843,0.32253042,1.9321578,0.27855557,1.2669028,-0.36728334,0.2913384,-0.13767837,0.123114325,0.82150817,10.376918,0.0,1.0,-1.0,2.0,7.0,-2.0,6.0,-2.0,0.0,-3.0,-4.0,1.0,2.0,-1.0,8.0,2.0,16.0,R101,0.0,-1.0,-1.0,-19.0,24.0,992.0,2.2005153,1.3574727,0.84917384,0.9256469,-0.07612673,4.941608,5.2751517,1.719542,3.6703267,13.98947,7.164807,6.1883717,26.606287,13.368573,16.865652,10.079189,115.125656,36.0,6.0,3.0,8.0,22.0,69.0,46.0,39.0,80.0,186.0,96.0,119.0,235.0,208.0,189.0,200.0,1542.0
0.664,L101,255.0,-36.0,6.0,366.0,-1037.0,2257.0,0.115675956,1.0623085,0.95407593,0.4464872,-0.78185743,0.64866316,3.0340843,0.32253042,1.7918508,0.3179901,1.1903547,-0.49644136,0.2913384,-0.010825335,-0.18184212,0.6875268,9.39192,-3.0,1.0,-1.0,3.0,1.0,-2.0,6.0,-2.0,2.0,-2.0,-2.0,-1.0,2.0,1.0,5.0,-1.0,7.0,R101,-4.0,-1.0,-2.0,-16.0,18.0,993.0,0.7071733,2.5313163,0.8164951,1.2216991,1.7877057,8.589698,7.0795727,2.07537,5.090783,15.135519,10.327195,10.57882,15.363074,8.194821,8.446419,7.069235,105.0149,18.0,21.0,20.0,16.0,48.0,119.0,96.0,46.0,100.0,199.0,133.0,174.0,161.0,145.0,105.0,109.0,1510.0
0.718,L101,198.0,-60.0,53.0,-36.0,-1847.0,1641.0,0.18552329,1.2133504,0.95407593,0.26464337,-0.4325028,0.9159696,2.9785597,0.34328243,1.7275879,0.3590551,1.1570392,-0.24055967,0.6222699,-0.13767837,-0.07942656,0.73176587,10.562955,-1.0,4.0,-1.0,1.0,7.0,2.0,4.0,-1.0,3.0,-1.0,-1.0,3.0,8.0,-1.0,6.0,0.0,32.0,R101,-3.0,0.0,-2.0,-15.0,18.0,999.0,0.7968263,3.1494818,1.4270573,1.4216319,1.9405549,10.005234,7.0380383,2.851413,5.9275537,15.135519,11.150948,13.039003,9.638717,5.287188,7.1667533,6.0426784,102.0186,19.0,30.0,44.0,21.0,51.0,137.0,95.0,60.0,111.0,199.0,143.0,198.0,114.0,102.0,90.0,75.0,1489.0
0.731,L101,72.0,-35.0,-2.0,-530.0,-2668.0,915.0,0.26207143,0.9659907,0.91130126,0.4464872,-0.2228055,0.8495664,3.062081,0.36488646,1.8600168,0.49160206,1.0230237,0.0060154353,0.39694083,-0.07380916,-0.38901776,0.82150817,10.775859,1.0,-1.0,-3.0,3.0,11.0,1.0,7.0,0.0,1.0,2.0,5.0,7.0,4.0,0.0,3.0,2.0,43.0,R101,-6.0,10.0,-3.0,-24.0,13.0,1014.0,3.3809175,6.7212143,1.6665663,2.8429122,2.5452807,10.905127,7.464591,5.9965963,5.7732024,13.405301,12.840736,14.919802,2.5449398,1.6912804,2.9178655,1.9985209,97.61484,54.0,78.0,50.0,51.0,65.0,148.0,105.0,111.0,109.0,179.0,164.0,215.0,40.0,33.0,34.0,23.0,1459.0
0.785,L101,-182.0,46.0,-65.0,-206.0,-3004.0,911.0,0.18552329,1.0137068,0.9321551,0.53566635,-0.27362347,0.78288835,3.0340843,0.32253042,1.7918508,0.9638952,1.037792,0.4746641,1.7738748,1.0927042,6.4170976,3.8948374,23.979645,-1.0,0.0,-2.0,4.0,10.0,0.0,6.0,-2.0,2.0,11.0,4.0,15.0,25.0,21.0,86.0,58.0,237.0,R101,-82.0,5.0,-7.0,-68.0,-84.0,1132.0,7.884897,16.372488,8.705377,14.7362,3.197586,16.097649,17.623842,10.636979,1.487641,4.0901074,2.0749316,1.3184868,0.75722075,0.751199,0.4729377,-1.1498079,105.057724,164.0,161.0,165.0,207.0,84.0,205.0,251.0,183.0,37.0,41.0,32.0,22.0,16.0,9.0,4.0,3.0,1584.0
0.822,L101,-165.0,67.0,-134.0,148.0,309.0,1086.0,0.115675956,0.7841428,0.8915324,0.8810291,-0.4325028,0.64866316,2.9236548,0.30264163,1.7918508,1.5943552,1.0021396,-0.24055967,11.175052,3.9906247,27.44678,26.648859,79.52394,-3.0,-5.0,-4.0,8.0,7.0,-2.0,2.0,-3.0,2.0,21.0,7.0,3.0,112.0,89.0,328.0,309.0,871.0,R101,-102.0,17.0,-16.0,-146.0,-157.0,1130.0,6.592606,15.572833,8.705377,14.639364,3.0681283,13.977327,13.365795,8.149714,1.3618737,3.9228933,1.9004706,0.6322977,0.48761344,0.823661,0.8390317,-1.5344609,92.504524,139.0,155.0,165.0,206.0,80.0,183.0,204.0,145.0,32.0,39.0,29.0,13.0,12.0,11.0,8.0,1.0,1422.0
0.837,L101,-262.0,166.0,-12.0,-355.0,88.0,2250.0,0.18552329,0.8282364,0.8915324,0.8810291,-0.07636962,0.7159244,2.9236548,0.26549876,4.518674,7.5125446,3.266219,2.8345199,31.368877,12.237763,23.219362,25.269394,116.842384,-1.0,-4.0,-4.0,8.0,14.0,-1.0,2.0,-5.0,86.0,96.0,58.0,61.0,240.0,211.0,294.0,299.0,1354.0,R101,-159.0,40.0,-57.0,-408.0,-196.0,1592.0,5.169527,12.597276,8.5683,9.646896,1.0635871,6.0726457,7.8243732,3.3224134,1.2499111,3.3986845,1.3611367,-0.088089146,0.75722075,0.7153573,0.7491641,-1.5344609,60.873955,98.0,132.0,163.0,150.0,36.0,85.0,113.0,68.0,25.0,33.0,18.0,5.0,16.0,8.0,7.0,1.0,958.0
0.927,L101,-6.0,0.0,-3.0,-12.0,9.0,1020.0,2.046764,1.7712145,1.9807236,4.6981635,2.2762952,7.4804616,6.4897194,5.5419226,11.333527,11.475071,14.642955,13.638337,20.50001,10.048448,9.173243,7.686516,130.78336,33.0,14.0,28.0,72.0,83.0,101.0,100.0,105.0,166.0,149.0,180.0,207.0,176.0,186.0,127.0,114.0,1841.0,R101,-171.0,76.0,-89.0,-573.0,-220.0,1602.0,2.6307275,6.7212143,3.137357,3.6827445,0.28769568,2.880619,5.464716,0.98693985,1.227121,2.3370907,1.1155406,0.10285662,1.4678724,0.9717296,0.3785097,-1.7320627,31.660671,42.0,78.0,79.0,66.0,26.0,39.0,52.0,22.0,22.0,22.0,11.0,7.0,26.0,15.0,3.0,0.0,510.0
0.944,L101,-3.0,-1.0,-18.0,-78.0,50.0,1010.0,3.730115,5.1465125,3.843906,6.8408012,2.958924,10.903763,8.493098,10.202214,10.419384,11.041865,14.287239,14.926854,10.64811,4.692244,6.4857354,4.4670153,129.08778,59.0,59.0,62.0,116.0,100.0,143.0,138.0,175.0,155.0,143.0,176.0,219.0,108.0,104.0,87.0,67.0,1911.0,R101,-174.0,59.0,-89.0,-93.0,911.0,1740.0,-0.21431808,2.8788168,1.6665663,1.6761407,-0.3714619,1.8022515,4.5535374,0.62470526,1.2231205,1.5823739,0.97752035,0.10285662,0.8259624,0.751199,0.28283086,-1.3403915,17.021711,8.0,26.0,50.0,27.0,19.0,23.0,21.0,10.0,21.0,15.0,5.0,7.0,17.0,9.0,2.0,2.0,262.0
0.979,L101,-2.0,-1.0,-31.0,-80.0,12.0,1003.0,4.592561,6.143101,4.6664734,8.505061,3.3325207,11.080303,9.601822,11.191727,8.211489,9.278434,13.660171,14.490913,5.279783,2.8128786,4.4178987,2.4049075,119.67005,73.0,70.0,75.0,144.0,108.0,145.0,156.0,189.0,129.0,119.0,169.0,215.0,63.0,61.0,58.0,33.0,1807.0,R101,-92.0,43.0,10.0,-299.0,1805.0,746.0,-1.2309331,1.6148312,0.82838345,1.340312,-1.3849128,1.1330345,4.193462,0.47855392,1.2607923,2.2333262,0.961709,0.19552408,0.8952313,0.8602836,0.08753522,-1.1498079,12.317325,-3.0,9.0,21.0,19.0,10.0,13.0,7.0,2.0,13.0,21.0,4.0,8.0,18.0,12.0,0.0,3.0,157.0
0.995,L101,0.0,-1.0,-20.0,30.0,-13.0,995.0,4.1056147,6.330086,4.6664734,9.317694,2.8280098,10.210004,8.850307,11.26355,6.564198,8.597689,13.750143,14.490913,4.052733,2.3668606,3.494789,1.6999571,112.58903,65.0,72.0,75.0,156.0,97.0,135.0,144.0,190.0,110.0,110.0,170.0,215.0,51.0,50.0,46.0,20.0,1706.0,R101,33.0,26.0,11.0,99.0,1452.0,364.0,-0.95849884,1.7789066,0.8059905,1.2607844,-1.5102179,1.2666298,4.1444016,0.523243,1.2607923,2.2333262,0.961709,-0.38909772,0.75722075,1.085563,0.4729377,-0.7789142,12.914775,0.0,11.0,19.0,17.0,9.0,15.0,5.0,5.0,13.0,21.0,4.0,2.0,16.0,18.0,4.0,5.0,164.0
1.046,L101,0.0,1.0,-1.0,147.0,-57.0,1010.0,3.3471012,6.4242105,4.218085,8.971712,2.871112,8.403997,8.376676,10.693434,5.0187197,7.7478113,12.75236,14.168159,2.8428793,1.7374675,2.0853581,1.1005566,100.759636,53.0,73.0,68.0,151.0,98.0,113.0,136.0,182.0,92.0,99.0,159.0,212.0,38.0,35.0,29.0,8.0,1546.0,R101,205.0,-19.0,-7.0,72.0,598.0,1144.0,-0.95849884,2.2417529,0.8164951,0.9968515,-1.7689453,0.7329366,4.095915,0.47855392,1.2747478,1.694365,0.961709,0.0083313575,0.8259624,0.823661,0.7491641,-1.1498079,11.823194,0.0,17.0,20.0,10.0,7.0,7.0,3.0,2.0,12.0,16.0,4.0,6.0,17.0,11.0,7.0,3.0,142.0
1.085,L101,-8.0,5.0,1.0,-7.0,8.0,1019.0,2.8281484,7.1917043,5.192123,8.570456,2.2045653,8.482886,9.797738,12.513377,3.4868321,7.1172147,11.641692,12.111144,1.1267163,1.237611,1.5528215,1.0059359,96.06097,45.0,81.0,83.0,145.0,81.0,114.0,159.0,207.0,73.0,91.0,147.0,192.0,16.0,24.0,23.0,6.0,1487.0,R101,241.0,-53.0,-17.0,-61.0,111.0,1380.0,-1.2309331,2.1672602,0.8164951,0.96101207,-2.4650414,0.8661904,4.0479956,0.4395487,1.2908818,0.8789219,0.9274927,-0.088089146,0.29116505,1.0473517,0.65822107,-0.9626641,9.645809,-3.0,16.0,20.0,9.0,2.0,9.0,1.0,-2.0,11.0,9.0,1.0,5.0,9.0,17.0,6.0,4.0,114.0
1.100,L101,-3.0,2.0,0.0,-12.0,2.0,978.0,3.539445,7.2893815,5.5941386,8.702515,2.0998187,8.482886,9.409174,12.213954,3.3365638,6.476911,11.454221,13.4292755,0.92940825,1.0927042,1.6430112,1.1484545,96.841866,56.0,82.0,89.0,147.0,78.0,114.0,153.0,203.0,71.0,83.0,145.0,205.0,13.0,21.0,24.0,9.0,1493.0,R101,203.0,-20.0,4.0,-256.0,-659.0,1268.0,-1.1408108,2.2417529,0.7968964,1.0331625,-2.320026,0.66635096,4.0242467,0.47855392,1.2223802,1.1195782,0.93664944,0.10285662,0.35608995,0.8602836,0.5661601,-0.5985127,10.345612,-2.0,17.0,18.0,11.0,3.0,6.0,0.0,2.0,18.0,11.0,2.0,7.0,10.0,12.0,5.0,6.0,126.0
1.152,L101,10.0,-4.0,1.0,-12.0,0.0,966.0,3.1533458,5.9578342,4.281402,7.8135056,1.867082,7.8601294,8.6702,9.169162,4.0319843,7.7478113,13.208165,16.387009,3.5718834,2.5295336,4.492637,2.8640518,103.60574,50.0,68.0,69.0,133.0,71.0,106.0,141.0,160.0,80.0,99.0,164.0,232.0,46.0,54.0,59.0,41.0,1573.0,R101,148.0,3.0,3.0,41.0,-1392.0,1517.0,-1.1408108,2.2417529,0.8562051,0.89075863,-2.6130366,0.8661904,4.0479956,0.44700068,1.3092324,1.0000433,0.9274927,0.19552408,0.22680476,0.7872999,0.5661601,-0.07694865,10.531664,-2.0,17.0,23.0,7.0,1.0,9.0,1.0,-1.0,10.0,10.0,1.0,8.0,8.0,10.0,5.0,9.0,116.0
1.190,L101,4.0,2.0,1.0,0.0,5.0,1021.0,2.3060787,4.0455456,3.015892,4.976204,2.0998187,6.9609084,6.632824,6.638057,5.871891,10.606498,15.085417,18.151966,9.237506,4.941812,7.8371625,5.6578174,114.06539,37.0,46.0,48.0,78.0,78.0,94.0,103.0,122.0,102.0,137.0,185.0,247.0,97.0,109.0,107.0,85.0,1675.0,R101,65.0,12.0,-23.0,-156.0,-1872.0,1100.0,-0.95849884,2.1672602,0.7735506,0.9256469,-2.0387714,0.9995556,4.0718846,0.47855392,1.3092324,1.2375529,0.9206464,0.0083313575,0.35608995,0.9343169,0.65822107,-0.9626641,10.880909,0.0,16.0,13.0,8.0,5.0,11.0,2.0,2.0,10.0,12.0,0.0,6.0,10.0,14.0,6.0,4.0,119.0
1.241,L101,1.0,0.0,0.0,-7.0,8.0,1020.0,3.2180698,4.884663,3.2452195,3.4212072,2.6607947,8.72136,7.9238276,7.6907997,7.779467,12.195119,15.437999,18.515057,14.055702,6.090332,7.8371625,6.2047305,129.88152,51.0,56.0,52.0,46.0,93.0,117.0,128.0,138.0,124.0,159.0,189.0,250.0,133.0,130.0,107.0,93.0,1866.0,R101,11.0,-38.0,-17.0,343.0,-2044.0,1001.0,-1.1408108,1.5306237,0.77827114,0.89075863,-1.7689453,0.5997927,4.0718846,0.523243,1.3092324,1.9140744,0.9206464,0.0083313575,1.0353336,0.823661,0.4729377,0.41608608,12.38512,-2.0,8.0,10.0,7.0,7.0,5.0,2.0,5.0,10.0,18.0,0.0,6.0,20.0,11.0,4.0,12.0,123.0
1.257,L101,2.0,-1.0,0.0,-9.0,8.0,1002.0,3.0235422,4.7983828,3.1297653,2.7389574,2.871112,9.043573,7.5439167,8.559762,8.297662,12.411293,15.085417,18.515057,18.325232,7.553822,10.116811,9.082333,141.09663,48.0,55.0,50.0,34.0,98.0,121.0,121.0,151.0,130.0,162.0,185.0,250.0,162.0,153.0,141.0,133.0,1994.0,R101,-12.0,-2.0,1.0,-70.0,-1621.0,1173.0,-1.1408108,1.3574727,0.7735506,0.82242346,-1.5102179,0.8661904,4.1200867,0.49203193,1.3092324,2.3370907,0.9480702,0.28637108,0.55420226,0.8602836,0.8390317,0.729508,13.644519,-2.0,6.0,13.0,5.0,9.0,9.0,4.0,3.0,10.0,22.0,3.0,9.0,13.0,12.0,8.0,14.0,138.0
1.349,L101,4.0,0.0,0.0,-1.0,10.0,1000.0,2.1761343,2.5429127,1.8894016,2.7389574,2.0998187,5.82273,5.3863544,4.2938585,6.7378664,11.763182,12.292516,13.9550085,24.396019,10.721951,13.9952965,14.778911,135.59093,35.0,26.0,26.0,34.0,78.0,78.0,75.0,85.0,112.0,153.0,154.0,210.0,200.0,194.0,195.0,203.0,1858.0,R101,-46.0,-5.0,75.0,233.0,-794.0,1021.0,-1.1408108,1.1774578,0.77350503,0.82242346,-1.5102179,0.9995556,4.095915,0.45600685,1.4356092,2.540784,0.9480702,0.19552408,0.8952313,1.0094075,1.1885669,1.3212451,15.208274,-2.0,4.0,12.0,5.0,9.0,11.0,3.0,0.0,5.0,24.0,3.0,8.0,18.0,16.0,12.0,18.0,146.0
1.361,L101,3.0,-1.0,0.0,-2.0,12.0,1004.0,1.6014339,1.538301,1.2941169,1.6694453,1.5555837,3.8395724,4.251169,2.1001914,6.0444465,11.330847,10.219805,10.958851,27.631784,12.4234295,14.8578005,14.868691,126.18547,26.0,10.0,11.0,18.0,61.0,48.0,45.0,46.0,104.0,147.0,132.0,180.0,219.0,213.0,206.0,204.0,1670.0,R101,-12.0,-52.0,56.0,290.0,-168.0,1025.0,-0.95849884,1.1774578,0.83362854,0.788982,-0.3714619,1.1330345,4.1200867,0.5069384,1.3298384,2.2333262,1.061603,0.7953007,0.8952313,0.9717296,1.5240719,0.88176733,16.923035,0.0,4.0,4.0,4.0,19.0,13.0,4.0,4.0,9.0,21.0,9.0,15.0,18.0,15.0,16.0,15.0,170.0
1.399,L101,0.0,-1.0,0.0,-1.0,12.0,1005.0,1.4158595,1.6531698,1.399383,2.2969234,1.8031381,4.2885704,4.682462,2.9482203,5.871891,11.11419,10.792847,10.772965,25.066006,11.599948,12.57185,13.041864,121.31928,23.0,12.0,14.0,27.0,69.0,55.0,57.0,62.0,102.0,144.0,138.0,178.0,204.0,204.0,176.0,183.0,1648.0,R101,-18.0,-16.0,2.0,-125.0,152.0,1141.0,-1.1408108,1.1774578,0.84917384,0.75602806,-1.5102179,1.4672487,4.095915,0.5802484,1.2607923,3.4885242,1.282413,1.0281774,1.5417067,1.2410948,1.6060321,2.1260629,19.849846,-2.0,4.0,3.0,3.0,9.0,18.0,3.0,8.0,13.0,34.0,16.0,18.0,27.0,22.0,17.0,24.0,217.0
1.467,L101,0.0,-1.0,0.0,-4.0,12.0,1002.0,1.727164,1.7712145,1.4736259,2.2306676,1.8349859,5.1427746,4.794898,3.4021723,6.304013,10.969481,10.411416,10.588863,22.421543,10.721951,11.922794,11.641997,117.35956,28.0,14.0,16.0,26.0,70.0,68.0,60.0,70.0,107.0,142.0,134.0,176.0,188.0,194.0,167.0,166.0,1626.0,R101,2.0,0.0,0.0,-26.0,25.0,963.0,-0.21431808,1.6975665,0.7750686,1.0699425,-0.07612673,4.385531,4.9445305,1.5754421,1.9224021,10.396425,6.7290764,5.6549,15.897973,7.687269,12.422601,7.7803564,82.648636,8.0,10.0,11.0,12.0,22.0,61.0,35.0,36.0,49.0,138.0,91.0,110.0,165.0,138.0,147.0,140.0,1173.0
1.521,L101,0.0,0.0,0.0,-3.0,12.0,1002.0,2.3060787,1.6531698,1.3634664,2.3623683,1.9320737,5.277024,4.682462,3.344505,4.9346166,10.751922,9.448006,9.522077,19.559092,8.481114,10.389285,10.222817,106.23007,37.0,12.0,13.0,28.0,73.0,70.0,57.0,69.0,91.0,139.0,124.0,164.0,170.0,166.0,145.0,148.0,1506.0,R101,-10.0,-17.0,0.0,-20.0,25.0,1007.0,0.7968263,2.3153422,0.8562051,1.3003229,0.6196776,5.4330654,5.3062825,1.5286542,3.153873,13.820255,8.551169,6.705179,20.923655,11.435711,16.645294,9.224571,108.61608,19.0,18.0,23.0,18.0,30.0,76.0,47.0,35.0,72.0,184.0,112.0,127.0,200.0,186.0,187.0,183.0,1517.0
1.559,L101,-5.0,-3.0,0.0,-5.0,13.0,1017.0,1.2945465,1.5953346,1.3283728,1.4436396,1.3751245,5.0759573,4.3917203,2.6199355,2.9033885,7.5911307,5.6590843,6.2360935,3.9550714,3.015906,2.344213,1.5452119,52.37473,21.0,11.0,12.0,15.0,55.0,67.0,49.0,56.0,65.0,97.0,85.0,121.0,50.0,66.0,32.0,17.0,819.0,R101,-14.0,-9.0,-1.0,-12.0,20.0,1030.0,1.4885397,2.5313163,0.8416288,1.3003229,1.7877057,7.531362,6.0041933,2.7363286,4.219389,15.786475,9.742009,8.021789,23.92391,14.200241,15.6641865,9.456373,125.23577,27.0,21.0,22.0,18.0,48.0,105.0,68.0,58.0,88.0,206.0,126.0,145.0,219.0,217.0,178.0,188.0,1734.0
1.662,L101,37.0,-69.0,-19.0,462.0,1702.0,440.0,0.4794531,0.9659907,0.95407593,-0.016990552,-0.7205044,1.0479956,2.9785597,0.43469995,1.7275879,0.7950735,1.0049974,1.1289049,0.39694083,0.112566754,0.42136043,0.95922124,12.669933,6.0,-1.0,-1.0,-2.0,2.0,4.0,4.0,3.0,3.0,8.0,13.0,27.0,4.0,3.0,11.0,5.0,89.0,R101,-4.0,-2.0,-1.0,-9.0,13.0,1000.0,1.8935965,3.1494818,0.8720865,1.5469275,2.4678545,9.6052685,6.5582247,2.2352223,4.868346,16.658955,10.327195,9.192284,23.761045,13.735196,14.700438,8.806548,130.37868,32.0,30.0,24.0,24.0,63.0,132.0,83.0,49.0,97.0,215.0,133.0,159.0,218.0,212.0,169.0,173.0,1813.0
1.681,L101,122.0,-32.0,18.0,-247.0,1453.0,501.0,0.43324408,0.8282364,0.95407593,0.07808286,-0.54407275,0.8495664,2.8964322,0.43469995,1.7275879,0.49160206,1.0021396,1.2855103,0.5642031,0.0512933,0.123114325,0.91290903,12.088625,5.0,-4.0,-1.0,-1.0,5.0,1.0,1.0,3.0,3.0,2.0,7.0,30.0,7.0,2.0,8.0,4.0,72.0,R101,-1.0,0.0,-1.0,-5.0,13.0,995.0,2.6307275,3.6171231,0.94815916,1.1448987,2.4678545,9.367864,6.793897,2.967648,5.16553,16.363657,10.740836,9.104576,20.771185,12.472679,11.723319,8.130411,124.41037,42.0,37.0,28.0,14.0,63.0,129.0,89.0,62.0,101.0,212.0,138.0,158.0,199.0,198.0,140.0,153.0,1763.0
1.714,L101,183.0,-13.0,24.0,-271.0,939.0,874.0,0.3883432,0.91916835,1.0010482,0.07808286,-0.7205044,0.7159244,2.8964322,0.45960155,1.8600168,0.68860215,1.0762466,1.0761755,0.34354064,-0.010825335,0.22326112,0.82150817,11.816622,4.0,-2.0,1.0,-1.0,2.0,-1.0,1.0,4.0,1.0,6.0,2.0,26.0,3.0,1.0,9.0,2.0,58.0,R101,0.0,0.0,-1.0,-5.0,12.0,996.0,2.6988423,3.4836578,1.2178265,1.1830697,2.5068724,9.764601,6.4814982,3.4424272,4.3609962,15.319058,10.160727,9.823147,18.403727,11.099115,10.083279,7.7803564,117.8092,43.0,35.0,38.0,15.0,64.0,134.0,81.0,70.0,90.0,201.0,131.0,166.0,183.0,182.0,123.0,140.0,1696.0
1.730,L101,197.0,-9.0,4.0,-2.0,354.0,1121.0,0.78113025,0.87324756,1.0260649,0.35614976,-0.78185743,0.7159244,2.8424432,0.43469995,1.8600168,0.68860215,1.0555149,1.1289049,0.39694083,-0.010825335,0.022221994,0.91290903,12.30209,12.0,-3.0,2.0,2.0,1.0,-1.0,-1.0,3.0,1.0,6.0,3.0,27.0,4.0,1.0,7.0,4.0,68.0,R101,1.0,0.0,-1.0,-4.0,10.0,990.0,2.5615838,3.88536,1.1258825,1.1071887,2.620391,10.329208,6.6358595,3.8680162,4.5762997,14.596534,9.909931,10.675754,15.897973,9.876517,9.525726,7.2286077,114.42084,41.0,41.0,35.0,13.0,67.0,141.0,85.0,77.0,93.0,193.0,128.0,175.0,165.0,167.0,117.0,116.0,1654.0
1.820,L101,164.0,-32.0,-8.0,-13.0,-318.0,1490.0,0.26207143,0.8282364,1.052079,0.1719577,-0.9739776,0.9159696,2.8424432,0.41060627,1.7275879,0.5873412,1.1269534,1.0761755,0.34354064,-0.010825335,-0.28503552,1.0059359,11.081059,1.0,-4.0,3.0,0.0,-2.0,2.0,-1.0,2.0,3.0,4.0,0.0,26.0,3.0,1.0,4.0,6.0,48.0,R101,0.0,0.0,-1.0,-4.0,13.0,991.0,2.2005153,4.020673,1.3537469,1.0331625,2.4678545,10.492574,6.6358595,4.052586,4.50416,14.333521,9.993674,12.189988,15.230571,8.942918,7.669297,6.9255304,112.04662,36.0,43.0,42.0,11.0,63.0,143.0,85.0,80.0,92.0,190.0,129.0,190.0,160.0,155.0,96.0,103.0,1618.0
1.836,L101,149.0,-15.0,2.0,-165.0,-548.0,1473.0,0.3026972,0.8282364,1.052079,0.4464872,-0.90856284,0.7159244,2.8424432,0.36488646,1.8600168,0.49160206,1.0111572,0.9698516,0.34354064,0.112566754,-0.07942656,0.95922124,11.312719,2.0,-4.0,3.0,3.0,-1.0,-1.0,-1.0,0.0,1.0,2.0,6.0,24.0,3.0,3.0,6.0,5.0,51.0,R101,0.0,0.0,-1.0,-3.0,11.0,991.0,2.3479967,4.718418,1.6247147,1.2216991,2.7292354,10.656877,6.793897,4.362422,4.3609962,13.98947,10.327195,12.931472,11.832066,7.403195,7.0841923,6.771146,109.15499,38.0,53.0,49.0,16.0,70.0,145.0,89.0,85.0,90.0,186.0,133.0,197.0,133.0,134.0,89.0,97.0,1604.0
1.925,L101,55.0,7.0,-11.0,128.0,-1088.0,1031.0,0.22299235,0.91916835,1.0010482,0.35614976,-0.9739776,0.8495664,2.8156753,0.34328243,1.7918508,0.40170717,0.99591917,0.9162328,0.34354064,0.17301486,-0.18184212,0.95922124,10.933549,0.0,-2.0,1.0,2.0,-2.0,1.0,-2.0,-1.0,2.0,0.0,8.0,23.0,3.0,4.0,5.0,5.0,47.0,R101,-1.0,-1.0,-2.0,-5.0,13.0,995.0,1.8935965,4.863565,1.9324735,1.5895666,2.9023707,10.739386,7.6874666,5.1765904,3.9411962,13.90463,11.314043,14.245496,11.239457,7.0541973,5.653309,6.16229,110.29964,32.0,55.0,56.0,25.0,75.0,146.0,110.0,98.0,84.0,185.0,145.0,209.0,128.0,129.0,71.0,78.0,1626.0
1.980,L101,-76.0,20.0,23.0,418.0,-1664.0,981.0,0.3026972,0.91916835,1.0010482,0.1719577,-0.90856284,1.0479956,2.7890568,0.38733146,1.9321578,0.49160206,0.99591917,0.9162328,0.99411494,0.40694413,2.930635,1.7522303,16.130527,2.0,-2.0,1.0,0.0,-1.0,4.0,-3.0,1.0,0.0,2.0,8.0,23.0,14.0,8.0,39.0,21.0,117.0,R101,-1.0,0.0,-2.0,-5.0,11.0,999.0,2.4202154,4.7907195,1.5432782,1.9000177,3.1006808,12.354929,8.057991,5.933435,3.7373142,13.652897,12.12214,16.296041,8.978564,6.1785717,4.675206,5.12793,110.869934,39.0,54.0,47.0,32.0,81.0,165.0,118.0,110.0,81.0,182.0,155.0,227.0,108.0,116.0,58.0,57.0,1630.0
1.993,L101,-154.0,67.0,-3.0,329.0,60.0,1062.0,0.14972906,0.6987406,0.95407593,0.07808286,-0.7205044,0.64866316,2.7362657,0.30264163,1.9321578,1.1427956,1.0111572,0.4746641,2.6687841,1.237611,8.972479,7.2565684,29.543911,-2.0,-7.0,-1.0,-1.0,2.0,-2.0,-5.0,-3.0,0.0,14.0,6.0,15.0,36.0,24.0,124.0,108.0,308.0,R101,-4.0,3.0,-2.0,-8.0,9.0,1004.0,2.8319857,5.3901453,1.2178265,2.230824,3.4222822,13.244502,10.439177,11.119482,4.010088,12.764818,12.681616,18.767773,4.3256173,3.0904613,2.4686124,2.7263794,110.73158,45.0,62.0,38.0,39.0,91.0,175.0,162.0,190.0,85.0,171.0,162.0,248.0,61.0,63.0,28.0,29.0,1649.0
2.050,L101,-223.0,50.0,-16.0,-134.0,288.0,1533.0,0.4794531,0.8282364,1.0260649,0.7105949,-0.90856284,0.78288835,2.7890568,0.34328243,1.6671574,1.9415414,0.9935302,0.69842094,9.112167,4.498552,18.663986,18.533676,62.160046,6.0,-4.0,2.0,6.0,-1.0,0.0,-3.0,-1.0,4.0,26.0,11.0,19.0,96.0,100.0,250.0,242.0,753.0,R101,-87.0,-1.0,0.0,-4.0,-21.0,1377.0,5.2629223,7.848232,4.7199516,10.564457,3.7179666,15.210879,19.941824,20.53234,1.8382001,5.934269,5.860081,5.1168227,1.2493383,1.0094075,1.1025935,-0.24757458,109.66171,101.0,90.0,105.0,161.0,100.0,196.0,272.0,293.0,47.0,66.0,81.0,100.0,23.0,16.0,11.0,8.0,1670.0
2.084,L101,-107.0,59.0,-8.0,80.0,38.0,1353.0,0.26207143,0.87324756,0.9770462,0.53566635,-0.7205044,1.1136401,2.7890568,0.2836273,1.1857711,4.3566513,2.1153421,1.6432137,19.248404,6.954435,19.526217,20.928495,82.07238,1.0,-3.0,0.0,4.0,2.0,5.0,-3.0,-4.0,18.0,57.0,42.0,37.0,168.0,144.0,259.0,264.0,991.0,R101,-179.0,-35.0,-5.0,-40.0,-118.0,1440.0,8.265495,14.780892,8.226959,14.254947,1.389375,10.410774,22.697844,32.155193,1.2223802,2.6407595,1.6344278,1.7773296,3.453884,0.8971685,1.1025935,-0.7789142,124.1311,170.0,149.0,158.0,202.0,41.0,142.0,294.0,368.0,18.0,25.0,24.0,29.0,51.0,13.0,11.0,5.0,1700.0
2.099,L101,9.0,11.0,0.0,-17.0,-6.0,1182.0,0.78113025,0.87324756,0.95407593,0.35614976,0.01652525,1.4385979,2.8964322,0.32253042,3.411361,6.476911,4.1041574,3.8055937,26.93928,9.966101,22.543837,23.446665,108.332596,12.0,-3.0,-1.0,2.0,16.0,10.0,1.0,-2.0,72.0,83.0,68.0,80.0,215.0,185.0,288.0,285.0,1311.0,R101,-230.0,-77.0,-16.0,-95.0,-171.0,1553.0,10.335346,16.506374,9.885333,14.254947,-0.90978354,5.929709,13.8461,26.555069,1.3779742,-0.015593896,1.1155406,1.3184868,3.5391383,1.2806534,0.28283086,-0.24757458,105.05456,197.0,162.0,182.0,202.0,14.0,83.0,210.0,336.0,7.0,2.0,11.0,22.0,52.0,23.0,2.0,8.0,1513.0
2.135,L101,0.0,1.0,0.0,-5.0,16.0,1016.0,0.62537456,0.87324756,1.0260649,0.35614976,0.91704494,2.0129592,3.1756516,0.59584934,3.9524617,8.5212555,5.5644565,5.217255,29.92486,12.704748,22.879215,23.572855,121.91946,9.0,-3.0,2.0,2.0,40.0,19.0,11.0,9.0,79.0,109.0,84.0,105.0,232.0,216.0,291.0,286.0,1491.0,R101,-368.0,-124.0,-28.0,64.0,-438.0,1942.0,7.4767766,15.043891,8.636799,11.424581,-1.0247353,3.9719021,9.900731,13.988694,1.405584,0.5057741,1.282413,1.4556264,0.75722075,1.2410948,1.1025935,-1.3403915,75.82855,157.0,151.0,164.0,171.0,13.0,55.0,153.0,228.0,6.0,6.0,16.0,24.0,16.0,22.0,11.0,2.0,1195.0
2.150,L101,-1.0,-1.0,0.0,-5.0,24.0,1008.0,0.83500034,0.9659907,1.0010482,0.4464872,1.0115192,2.6422114,3.1756516,0.7506897,4.4365225,8.901807,6.812983,5.278021,30.46339,13.374119,21.7792,20.701086,122.57573,13.0,-1.0,1.0,3.0,43.0,29.0,11.0,14.0,85.0,114.0,97.0,106.0,235.0,223.0,281.0,262.0,1516.0,R101,-414.0,-13.0,-82.0,-728.0,-912.0,2528.0,5.169527,7.177117,3.137357,3.624303,-1.9024504,2.880619,7.0795727,4.1762185,1.2737663,0.8789219,0.961709,1.7773296,0.42157438,1.4416106,-0.11332944,-2.346532,35.63731,98.0,83.0,79.0,65.0,6.0,39.0,96.0,82.0,27.0,9.0,4.0,29.0,11.0,27.0,-2.0,-3.0,650.0
2.203,L101,0.0,-1.0,0.0,-2.0,24.0,1004.0,0.88976693,0.9659907,1.135938,0.26464337,1.2252418,3.395999,3.6249738,1.0721513,5.614027,9.79962,8.180614,6.103107,29.567808,12.799267,18.663986,18.32694,121.63007,14.0,-1.0,6.0,1.0,50.0,41.0,26.0,23.0,99.0,126.0,111.0,119.0,230.0,217.0,250.0,240.0,1552.0,R101,-184.0,73.0,205.0,-920.0,2728.0,205.0,-0.95849884,1.3574727,0.77517587,0.85634995,-2.6130366,0.5997927,4.526822,0.6487849,1.3092324,0.24858661,0.93664944,0.0083313575,-0.024885884,0.9343169,-0.0121766245,-1.3403915,7.252525,0.0,6.0,14.0,6.0,1.0,5.0,20.0,11.0,10.0,4.0,2.0,6.0,4.0,14.0,-1.0,2.0,104.0
2.241,L101,0.0,-1.0,0.0,-1.0,25.0,1003.0,0.83500034,1.2133504,1.0790735,0.35614976,1.4050676,4.1596227,3.7833476,1.2311249,6.0444465,11.330847,9.350997,6.3032146,27.111835,12.145499,16.255362,16.443638,119.048584,13.0,4.0,4.0,2.0,56.0,53.0,31.0,27.0,104.0,147.0,123.0,122.0,216.0,210.0,223.0,221.0,1556.0,R101,133.0,-101.0,269.0,324.0,1531.0,964.0,-1.1408108,1.0846632,0.8199424,0.82242346,-2.7640522,0.66635096,4.526822,0.6018505,1.2908818,0.5057741,0.9206464,0.0083313575,0.037163474,0.8971685,1.1025935,-0.9626641,8.417084,-2.0,3.0,5.0,5.0,0.0,6.0,20.0,9.0,11.0,6.0,0.0,6.0,5.0,13.0,11.0,4.0,102.0
2.312,L101,-1.0,-1.0,0.0,-1.0,25.0,1001.0,1.0589948,1.4820763,1.0790735,0.4464872,1.7089458,4.679111,4.3562865,1.5756437,7.6062,11.619169,9.253885,6.2360935,25.741947,11.780258,12.13754,12.1289015,112.8906,17.0,9.0,4.0,3.0,66.0,61.0,48.0,35.0,122.0,151.0,122.0,121.0,208.0,206.0,170.0,172.0,1515.0,R101,208.0,22.0,-124.0,183.0,643.0,487.0,-1.1408108,0.5892044,0.8666115,0.7235645,-3.2356255,0.5332616,4.095915,0.47855392,1.3092324,-0.15037605,0.93664944,-0.28676605,-0.20746252,0.751199,0.5661601,-1.5344609,4.2948503,-2.0,-2.0,2.0,2.0,-3.0,4.0,3.0,2.0,10.0,1.0,2.0,3.0,1.0,9.0,5.0,1.0,38.0
2.348,L101,-1.0,-1.0,0.0,-1.0,14.0,1001.0,1.6014339,2.4070313,1.1657752,0.6236984,2.871112,7.6314597,5.064725,1.666892,9.324295,13.353817,10.792847,6.9979773,23.73196,9.010458,9.173243,9.686146,115.102875,26.0,24.0,7.0,5.0,98.0,103.0,67.0,37.0,142.0,175.0,138.0,132.0,196.0,173.0,127.0,141.0,1591.0,R101,307.0,9.0,-14.0,-68.0,543.0,915.0,-1.0499684,0.8930551,0.90729773,0.69159395,-2.7640522,0.40028092,4.095915,0.5069384,1.3527391,-0.015593896,0.9206464,-0.1864424,-0.14720464,0.8602836,0.4729377,-1.5344609,5.403966,-1.0,1.0,0.0,1.0,0.0,2.0,3.0,4.0,8.0,2.0,0.0,4.0,2.0,12.0,4.0,1.0,43.0
2.360,L101,-1.0,0.0,3.0,2.0,26.0,1001.0,1.8542147,1.538301,1.0790735,0.6236984,3.048923,7.6314597,4.5719023,1.5756437,9.49394,12.989788,10.507002,6.575939,20.34227,8.630221,9.039363,8.121636,107.62337,30.0,10.0,4.0,5.0,102.0,103.0,54.0,35.0,144.0,170.0,135.0,126.0,175.0,168.0,125.0,120.0,1506.0,R101,323.0,39.0,70.0,-490.0,-85.0,1098.0,-1.2309331,0.79405826,0.8666115,0.7235645,-2.6130366,0.2010139,4.1200867,0.47855392,1.3527391,-0.15037605,0.9206464,-0.088089146,-0.08634382,0.7153573,0.3785097,-1.1498079,5.232555,-3.0,0.0,2.0,2.0,1.0,-1.0,4.0,2.0,8.0,1.0,0.0,5.0,3.0,8.0,3.0,3.0,38.0
2.401,L101,-2.0,1.0,2.0,2.0,18.0,1000.0,1.2945465,1.3720835,1.1070321,1.1284728,3.2356772,8.9625635,5.304589,1.9518297,9.324295,12.844788,11.266079,8.847275,18.939194,7.622569,7.3004413,5.9984474,106.49988,21.0,7.0,5.0,11.0,106.0,120.0,73.0,43.0,142.0,168.0,143.0,156.0,166.0,154.0,99.0,90.0,1504.0,R101,330.0,64.0,49.0,-99.0,-137.0,1559.0,-1.2309331,0.9898924,0.88597476,0.75602806,-2.320026,0.2010139,4.0718846,0.47855392,1.3092324,-0.28699034,0.9206464,-0.088089146,-0.024885884,0.7153573,1.1025935,-0.9626641,6.517589,-3.0,2.0,1.0,3.0,3.0,-1.0,2.0,2.0,10.0,0.0,0.0,5.0,4.0,8.0,11.0,4.0,51.0
2.452,L101,-5.0,0.0,0.0,-3.0,24.0,1007.0,1.2945465,2.016596,1.1657752,1.3663871,3.7980669,11.707946,6.7295737,5.414805,10.669682,12.91725,14.198032,11.623376,11.7091675,4.8409615,4.5670724,3.3403854,107.35962,21.0,18.0,7.0,14.0,117.0,152.0,105.0,103.0,158.0,169.0,175.0,187.0,116.0,107.0,60.0,49.0,1558.0,R101,330.0,32.0,108.0,-96.0,-400.0,1905.0,-1.2309331,0.9898924,0.8666115,0.82242346,-2.7640522,0.26740894,4.095915,0.55992734,1.3092324,-0.28699034,0.9206464,-0.28676605,-0.08634382,0.7153573,0.65822107,-1.3403915,5.2101593,-3.0,2.0,2.0,5.0,0.0,0.0,3.0,7.0,10.0,0.0,0.0,3.0,3.0,8.0,6.0,2.0,48.0
2.467,L101,-7.0,-3.0,0.0,-3.0,12.0,1007.0,2.762892,3.4913764,1.6726276,1.2881181,4.078422,13.391119,8.147712,7.425889,11.250794,12.989788,14.465311,14.168159,6.4875717,2.893936,3.1749787,1.6480271,109.336716,44.0,39.0,21.0,13.0,122.0,170.0,132.0,134.0,165.0,170.0,178.0,212.0,74.0,63.0,42.0,19.0,1598.0,R101,284.0,40.0,132.0,-254.0,-1041.0,2051.0,-1.1408108,1.1774578,0.84917384,0.7235645,-2.9181287,0.26740894,4.0718846,0.6018505,1.2908818,-0.15037605,0.9274927,-0.38909772,0.037163474,0.7153573,0.4729377,-1.3403915,5.1963677,-2.0,4.0,3.0,2.0,-1.0,0.0,2.0,9.0,11.0,1.0,1.0,2.0,5.0,8.0,4.0,2.0,51.0
2.503,L101,-6.0,-4.0,0.0,-1.0,8.0,1007.0,4.592561,6.0502505,3.1297653,1.9572018,4.49774,15.3766575,11.565176,9.648265,11.746379,12.4834175,14.908692,15.817655,2.2485564,1.693739,0.9042939,1.0530491,117.6734,73.0,69.0,50.0,22.0,129.0,190.0,184.0,167.0,171.0,163.0,183.0,227.0,31.0,34.0,16.0,7.0,1716.0,R101,228.0,11.0,81.0,-266.0,-1259.0,2013.0,-1.1408108,1.0846632,0.8666115,0.85634995,-2.6130366,0.2010139,4.0242467,0.5069384,1.3779742,-0.28699034,0.91615796,-0.28676605,0.22680476,0.823661,0.92786545,-1.3403915,6.144292,-2.0,3.0,2.0,6.0,1.0,-1.0,0.0,4.0,7.0,0.0,-1.0,3.0,8.0,11.0,9.0,2.0,52.0
2.570,L101,-6.0,-8.0,1.0,17.0,5.0,1018.0,5.177698,8.591317,4.408799,2.7992017,5.1518154,19.139488,18.28681,14.315848,10.919192,11.041865,14.465311,14.168159,0.86577916,0.9433062,0.322673,0.6875268,131.2848,83.0,95.0,71.0,35.0,139.0,225.0,256.0,230.0,161.0,143.0,178.0,212.0,12.0,18.0,10.0,-1.0,1867.0,R101,93.0,76.0,-69.0,2.0,-1479.0,1349.0,-1.1408108,0.9898924,0.8666115,0.75602806,-2.4650414,0.26740894,4.0242467,0.49203193,1.4356092,-0.5658293,0.91407496,-0.38909772,0.35608995,0.7872999,1.1885669,-0.9626641,6.554418,-2.0,2.0,2.0,3.0,2.0,0.0,0.0,3.0,5.0,-2.0,-2.0,2.0,10.0,10.0,12.0,4.0,49.0
2.610,L101,-99.0,-6.0,0.0,4.0,-51.0,1305.0,7.676194,11.89561,5.661713,5.4885125,7.323072,32.375484,51.144047,28.400167,6.651017,4.5200353,4.7286544,3.287117,0.39694083,0.40694413,-0.38901776,0.73176587,170.29823,130.0,126.0,90.0,89.0,167.0,326.0,428.0,352.0,111.0,59.0,75.0,70.0,4.0,8.0,3.0,0.0,2038.0,R101,93.0,-3.0,-25.0,906.0,-1810.0,1208.0,-1.1408108,1.1774578,0.84917384,0.89075863,-2.7640522,0.068306506,4.0718846,0.47855392,1.405584,-0.28699034,0.91615796,-0.5999362,-0.024885884,0.7872999,1.2736645,-1.3403915,5.7617755,-2.0,4.0,3.0,7.0,0.0,-3.0,2.0,2.0,6.0,0.0,-1.0,0.0,4.0,10.0,13.0,2.0,47.0
2.661,L101,-138.0,-8.0,3.0,20.0,-99.0,1247.0,8.792124,12.784674,6.414337,7.4573545,7.067311,39.620243,70.32893,40.682457,3.0446296,2.3053195,1.6594356,1.5926688,0.39694083,0.3496027,-0.49379984,0.6875268,202.68976,151.0,134.0,101.0,127.0,164.0,369.0,483.0,414.0,67.0,31.0,34.0,36.0,4.0,7.0,2.0,-1.0,2123.0,R101,-130.0,0.0,-27.0,8.0,-2951.0,3203.0,-1.2309331,0.9898924,0.8666115,0.7235645,-2.6130366,0.40028092,4.0479956,0.47855392,1.4356092,0.11738434,0.9206464,-0.5999362,0.29116505,0.7872999,1.2736645,0.88176733,8.77053,-3.0,2.0,2.0,2.0,1.0,2.0,1.0,2.0,5.0,3.0,0.0,0.0,9.0,10.0,13.0,15.0,64.0
2.675,L101,-191.0,-3.0,7.0,13.0,-159.0,1340.0,9.535269,15.057917,7.462999,9.388145,5.575401,32.9963,63.388306,41.644096,1.6328622,1.6623048,1.2366667,0.9162328,0.34354064,0.29151344,-0.38901776,0.7764276,191.51895,164.0,154.0,116.0,157.0,145.0,330.0,465.0,418.0,43.0,22.0,24.0,23.0,3.0,6.0,3.0,1.0,2074.0,R101,-216.0,-67.0,23.0,-180.0,-861.0,721.0,-1.1408108,1.1774578,0.84917384,0.7235645,-2.1779497,1.0662806,4.095915,0.46653515,1.3298384,1.9140744,0.961709,-0.088089146,4.686109,1.9509249,7.5004086,6.998466,30.313608,-2.0,4.0,3.0,2.0,4.0,12.0,3.0,1.0,9.0,18.0,4.0,5.0,65.0,39.0,94.0,106.0,367.0
2.716,L101,-250.0,3.0,20.0,110.0,-215.0,1229.0,9.594805,16.218052,8.173251,10.570755,2.7018344,20.515142,41.194576,35.786613,1.5115868,1.4608864,0.99799067,0.3024515,0.92940825,0.23265727,-0.07942656,0.82150817,150.93208,165.0,164.0,126.0,173.0,94.0,237.0,391.0,392.0,40.0,19.0,12.0,12.0,13.0,5.0,6.0,2.0,1851.0,R101,-215.0,-108.0,15.0,181.0,265.0,2003.0,-0.95849884,1.1774578,0.83362854,0.66011906,-1.638215,1.2666298,4.0479956,0.47855392,1.2607923,5.6640644,1.5374354,0.46275258,19.718834,8.715642,22.68226,17.130852,83.040306,0.0,4.0,4.0,0.0,8.0,15.0,1.0,2.0,13.0,62.0,22.0,11.0,192.0,152.0,239.0,282.0,1007.0
2.818,L101,-380.0,-75.0,19.0,-182.0,-479.0,3439.0,4.4118876,6.0502505,2.8482006,4.1792974,0.01652525,2.6422114,4.7572093,1.7132366,1.2844456,0.3590551,1.0111572,0.0060154353,0.86577916,0.57467,-0.18184212,0.60033345,31.138433,70.0,69.0,45.0,61.0,16.0,29.0,59.0,38.0,13.0,-1.0,6.0,7.0,12.0,11.0,5.0,-3.0,437.0,R101,-56.0,-41.0,9.0,-91.0,45.0,1465.0,-0.774036,0.8930551,0.8666115,0.788982,-1.1422131,1.9364908,4.0479956,0.523243,1.3841316,9.624248,5.3437295,4.177064,24.912851,13.8276005,25.35775,19.082026,110.849525,2.0,1.0,2.0,4.0,12.0,25.0,1.0,5.0,33.0,126.0,75.0,80.0,225.0,213.0,260.0,298.0,1362.0
2.871,L101,230.0,99.0,-182.0,376.0,2831.0,774.0,0.34480792,1.0137068,0.9770462,0.8810291,-0.9739776,1.3092263,3.53206,0.5670702,1.7918508,0.27855557,1.1269534,-0.11616254,0.86577916,0.0512933,0.022221994,0.82150817,12.492969,3.0,0.0,0.0,8.0,-2.0,8.0,23.0,8.0,2.0,-3.0,0.0,5.0,12.0,2.0,7.0,2.0,75.0,R101,-12.0,-5.0,1.0,-27.0,20.0,1034.0,-0.6812132,1.0846632,0.8666115,0.788982,0.109927386,3.9719021,4.500264,1.3048861,2.4567375,11.565406,6.5548406,5.487735,27.825733,14.960243,24.574799,16.899748,122.27126,3.0,3.0,2.0,4.0,24.0,55.0,19.0,30.0,60.0,155.0,89.0,107.0,242.0,225.0,254.0,280.0,1552.0
2.886,L101,272.0,88.0,-36.0,590.0,830.0,732.0,0.115675956,1.0623085,0.95407593,0.8810291,-0.9739776,1.2442449,3.53206,0.38733146,1.7918508,0.3179901,1.1570392,0.0060154353,0.50728446,0.0512933,-0.07942656,0.82150817,11.776304,-3.0,1.0,-1.0,8.0,-2.0,7.0,23.0,1.0,2.0,-2.0,-1.0,7.0,6.0,2.0,6.0,2.0,56.0,R101,-4.0,-1.0,-1.0,-29.0,4.0,999.0,-0.49478763,0.79405826,0.8666115,0.82242346,-0.57966906,4.1783752,5.1222143,1.9197445,3.2164066,13.081509,7.5130076,5.5986075,26.951822,16.138128,23.680798,15.363222,124.17247,5.0,0.0,2.0,5.0,17.0,58.0,41.0,43.0,73.0,175.0,100.0,109.0,237.0,237.0,247.0,266.0,1615.0
2.938,L101,228.0,19.0,33.0,-50.0,367.0,453.0,0.14972906,1.1117884,0.9321551,0.8810291,-0.90856284,0.78288835,3.1470196,0.38733146,2.0083463,0.24079579,1.100041,0.41770005,0.2913384,0.0512933,-0.07942656,0.86700326,11.380469,-2.0,2.0,-2.0,8.0,-1.0,0.0,10.0,1.0,-1.0,-4.0,1.0,14.0,2.0,2.0,6.0,3.0,39.0,R101,0.0,0.0,-1.0,-27.0,17.0,996.0,-0.21431808,1.0846632,0.7735506,0.89075863,0.84932375,7.0143094,6.219956,2.6224856,4.2899923,12.764818,8.120132,7.484256,17.550272,11.776812,14.172737,9.224571,104.62432,8.0,3.0,13.0,7.0,33.0,98.0,74.0,56.0,89.0,171.0,107.0,138.0,177.0,190.0,164.0,183.0,1511.0
2.976,L101,287.0,-7.0,-14.0,182.0,498.0,860.0,0.115675956,0.8282364,0.95407593,0.6236984,-0.78185743,0.8495664,3.2625175,0.32253042,1.9321578,0.24079579,1.1570392,0.18535511,0.19057897,-0.07380916,0.022221994,0.86700326,10.695786,-3.0,-4.0,-1.0,5.0,1.0,1.0,14.0,-2.0,0.0,-4.0,-1.0,10.0,0.0,0.0,7.0,3.0,26.0,R101,0.0,0.0,-1.0,-27.0,14.0,992.0,0.6169291,1.6975665,0.8562051,0.9968515,0.77453697,8.589698,6.4814982,2.5660594,3.7373142,12.455059,7.9470468,8.845169,11.357086,6.5769954,9.525726,6.950114,89.973854,17.0,10.0,23.0,10.0,32.0,119.0,81.0,55.0,81.0,167.0,105.0,155.0,129.0,122.0,117.0,104.0,1327.0
2.990,L101,329.0,7.0,-18.0,121.0,183.0,1095.0,0.14972906,0.91916835,0.9321551,0.35614976,-0.7205044,0.64866316,3.2044446,0.34328243,1.9321578,0.40170717,1.100041,0.36030018,0.39694083,-0.20245335,0.022221994,0.82150817,10.665511,-2.0,-2.0,-2.0,2.0,2.0,-2.0,12.0,-1.0,0.0,0.0,1.0,13.0,4.0,-2.0,7.0,2.0,32.0,R101,-1.0,0.0,-1.0,-32.0,17.0,995.0,-0.3078242,2.3153422,0.99338055,1.1448987,0.84932375,8.743767,6.793897,3.2032287,3.804797,12.003004,9.319713,12.399766,8.333645,5.1642427,7.001969,6.31018,88.07333,7.0,18.0,30.0,14.0,33.0,121.0,89.0,66.0,82.0,161.0,121.0,192.0,102.0,100.0,88.0,82.0,1306.0
3.028,L101,346.0,-24.0,42.0,83.0,128.0,1474.0,0.115675956,0.91916835,0.9321551,0.4464872,-0.90856284,0.7159244,3.1470196,0.45960155,2.0886557,0.27855557,1.1903547,0.36030018,0.39694083,-0.20245335,-0.49379984,0.86700326,10.313025,-3.0,-2.0,-2.0,3.0,-1.0,-1.0,10.0,4.0,-2.0,-3.0,-2.0,13.0,4.0,-2.0,2.0,3.0,21.0,R101,-2.0,0.0,-2.0,-30.0,15.0,994.0,-0.3078242,3.3502357,1.2504195,1.3003229,1.4501809,9.446789,6.7540383,3.4424272,4.010088,12.302722,10.57581,13.912396,6.390202,4.6835136,5.653309,5.0652957,89.27992,7.0,33.0,39.0,18.0,42.0,130.0,88.0,70.0,85.0,165.0,136.0,206.0,83.0,92.0,71.0,56.0,1321.0
3.043,L101,354.0,-18.0,7.0,-20.0,-143.0,1915.0,0.115675956,0.8282364,0.9770462,0.07808286,-0.60164267,0.7159244,3.1185477,0.41060627,2.0083463,0.3179901,1.0762466,0.36030018,0.14204775,-0.07380916,-0.38901776,0.82150817,9.906089,-3.0,-4.0,0.0,-1.0,4.0,-1.0,9.0,2.0,-1.0,-2.0,2.0,13.0,-1.0,0.0,3.0,2.0,22.0,R101,-2.0,0.0,-2.0,-27.0,17.0,997.0,0.25089818,4.088737,1.9324735,1.4216319,1.8906882,9.132326,7.552955,5.4285636,3.8727617,12.764818,12.12214,15.718596,5.5214853,3.400699,4.0881414,4.27472,93.46163,13.0,44.0,56.0,21.0,50.0,126.0,107.0,102.0,83.0,171.0,155.0,222.0,74.0,69.0,50.0,45.0,1388.0
3.098,L101,323.0,-40.0,-36.0,248.0,-511.0,2204.0,0.115675956,0.8282364,0.9321551,0.53566635,-0.66044307,0.7159244,3.1470196,0.34328243,2.0083463,0.27855557,1.1903547,0.24414083,0.14204775,0.112566754,-0.07942656,0.82150817,10.675611,-3.0,-4.0,-2.0,4.0,3.0,-1.0,10.0,-1.0,-1.0,-3.0,-2.0,11.0,-1.0,3.0,6.0,2.0,21.0,R101,-8.0,4.0,-3.0,-36.0,7.0,1012.0,2.765928,6.5443125,2.2212644,3.0044339,2.6571524,11.408275,9.501215,9.898098,4.5762997,11.493822,13.633149,17.700739,1.5417067,1.2806534,1.6060321,1.1775941,101.01068,44.0,76.0,62.0,54.0,68.0,154.0,146.0,172.0,93.0,154.0,174.0,239.0,27.0,23.0,17.0,17.0,1520.0
3.187,L101,269.0,33.0,10.0,104.0,-1966.0,2190.0,0.115675956,0.87324756,0.9321551,0.26464337,-0.3784427,1.3092263,3.1470196,0.45960155,1.7275879,0.3590551,1.0762466,0.36030018,0.5642031,-0.13767837,0.022221994,0.86700326,11.562066,-3.0,-3.0,-2.0,1.0,8.0,8.0,10.0,4.0,3.0,-1.0,2.0,13.0,7.0,-1.0,7.0,3.0,56.0,R101,-21.0,-1.0,-2.0,-45.0,4.0,1035.0,3.4369714,6.901229,2.2212644,3.4510357,3.1653857,12.442611,12.093508,11.829388,3.804797,9.68722,12.681616,14.134147,0.35608995,0.8971685,0.92786545,-0.07694865,97.95335,55.0,80.0,62.0,62.0,83.0,166.0,187.0,200.0,82.0,127.0,162.0,208.0,10.0,13.0,9.0,9.0,1515.0
3.200,L101,138.0,-39.0,91.0,304.0,-3115.0,1215.0,0.18552329,0.87324756,0.9321551,0.1719577,-0.3784427,0.9159696,3.1756516,0.5670702,1.8600168,0.4459035,0.99799067,0.3024515,0.24034686,-0.26815462,0.022221994,0.91290903,10.956818,-1.0,-3.0,-2.0,0.0,8.0,2.0,11.0,8.0,1.0,1.0,12.0,12.0,1.0,-3.0,7.0,4.0,58.0,R101,-49.0,-10.0,-2.0,-40.0,-15.0,1072.0,4.6045194,7.177117,3.137357,5.859692,3.197586,13.4259,16.326002,17.495686,2.9101253,7.0780916,9.993674,9.639926,0.42157438,0.823661,0.8390317,-1.3403915,101.58956,81.0,83.0,79.0,100.0,84.0,177.0,238.0,266.0,68.0,84.0,129.0,164.0,11.0,11.0,8.0,2.0,1585.0
3.238,L101,-20.0,0.0,84.0,-435.0,-3707.0,899.0,0.08343187,0.8282364,0.9321551,0.35614976,-0.4325028,0.8495664,3.0340843,0.5390452,1.8600168,0.49160206,0.99799067,0.69842094,0.45152625,0.17301486,1.3706472,0.7764276,13.009812,-4.0,-4.0,-2.0,2.0,7.0,1.0,6.0,7.0,1.0,2.0,12.0,19.0,5.0,4.0,21.0,1.0,78.0,R101,-77.0,-3.0,-1.0,-18.0,-38.0,1256.0,5.0751734,7.848232,3.7870014,8.918322,3.197586,14.825507,24.073488,25.311836,1.9224021,5.025509,5.088008,4.353835,0.55420226,0.7872999,1.0157061,-1.3403915,110.44372,95.0,90.0,90.0,141.0,84.0,192.0,304.0,328.0,49.0,53.0,72.0,84.0,13.0,10.0,10.0,2.0,1617.0
3.254,L101,-252.0,106.0,-25.0,581.0,-861.0,1066.0,0.053066228,0.91916835,0.9321551,0.35614976,-0.27362347,0.64866316,3.0340843,0.32253042,1.9321578,1.0821,0.9924446,0.12608112,3.666547,1.4703304,11.780475,10.377645,37.419975,-5.0,-2.0,-2.0,2.0,10.0,-2.0,6.0,-2.0,0.0,13.0,9.0,9.0,47.0,29.0,165.0,150.0,427.0,R101,-117.0,-8.0,-1.0,-35.0,-65.0,1295.0,5.386974,11.130044,4.847379,10.395411,3.229716,17.01274,31.00438,34.126236,1.2329419,3.0287282,2.4533124,1.6521019,0.55420226,0.7872999,0.8390317,-1.7320627,125.94843,105.0,120.0,107.0,159.0,85.0,214.0,347.0,378.0,23.0,29.0,38.0,27.0,13.0,10.0,8.0,0.0,1663.0
3.294,L101,-311.0,85.0,-46.0,-328.0,79.0,1860.0,0.18552329,0.8282364,0.91130126,0.7105949,-0.7205044,0.64866316,2.9785597,0.43469995,1.7275879,2.8366272,1.0575255,0.69842094,16.223639,5.3060136,31.545551,34.48101,99.85345,-1.0,-4.0,-3.0,6.0,2.0,-2.0,4.0,3.0,3.0,38.0,17.0,19.0,148.0,116.0,356.0,358.0,1060.0,R101,-170.0,-24.0,-10.0,-90.0,-109.0,1480.0,5.6706624,12.472326,5.7536464,12.85349,2.219202,13.700244,27.724878,37.077553,1.2223802,0.5057741,1.5374354,0.87444043,2.787521,1.1240422,0.4729377,-1.7320627,124.26448,114.0,131.0,121.0,187.0,57.0,180.0,328.0,392.0,18.0,6.0,22.0,16.0,43.0,19.0,4.0,0.0,1638.0
3.307,L101,-96.0,68.0,-11.0,0.0,-27.0,1843.0,0.18552329,0.91916835,0.9321551,0.4464872,-0.12420734,0.98210907,2.9236548,0.45960155,1.5503165,6.234611,3.509775,2.8345199,26.767101,11.421194,25.744164,28.848726,113.6349,-1.0,-2.0,-2.0,3.0,13.0,3.0,2.0,4.0,41.0,80.0,61.0,61.0,214.0,202.0,315.0,324.0,1318.0,R101,-310.0,-76.0,-42.0,-331.0,-178.0,2015.0,7.1566734,12.722669,6.7451286,13.313782,0.37357467,6.8679295,14.9468,29.051062,1.3527391,-0.7081114,0.961709,0.54836124,0.8259624,1.3204836,0.65822107,-1.9332438,94.203735,151.0,133.0,136.0,192.0,27.0,96.0,223.0,351.0,8.0,-3.0,4.0,12.0,17.0,24.0,6.0,-1.0,1376.0
3.359,L101,-7.0,1.0,-1.0,-17.0,-9.0,1021.0,0.7282036,0.91916835,0.95407593,0.26464337,0.685652,2.4539425,3.1470196,0.71829695,4.601195,7.8259044,7.691327,5.5875,29.746138,13.962032,22.879215,23.446665,125.61097,11.0,-2.0,-1.0,1.0,33.0,26.0,10.0,13.0,87.0,100.0,106.0,111.0,231.0,229.0,291.0,285.0,1531.0,R101,-488.0,-72.0,-75.0,-363.0,-685.0,2841.0,4.8811955,9.632397,6.016304,9.239667,-1.1422131,4.524035,10.136523,12.643988,1.4680909,0.37804067,0.9480702,0.7953007,0.037163474,0.7872999,-0.11332944,-2.138051,58.094475,89.0,107.0,125.0,145.0,12.0,63.0,157.0,211.0,4.0,5.0,3.0,15.0,5.0,10.0,-2.0,-2.0,947.0
3.396,L101,-1.0,-1.0,0.0,-4.0,9.0,1007.0,0.62537456,0.9659907,0.95407593,0.35614976,1.0425442,2.6422114,3.4406962,1.621025,5.2725616,8.597689,8.082766,6.2360935,29.212318,15.279376,20.523449,20.36377,125.21608,9.0,-1.0,-1.0,2.0,44.0,29.0,20.0,36.0,95.0,110.0,110.0,121.0,228.0,242.0,269.0,259.0,1572.0,R101,-510.0,-23.0,-92.0,88.0,-113.0,3559.0,2.9610262,4.2258253,2.2212644,3.0044339,-2.4650414,3.016225,6.5197487,2.967648,1.2908818,0.37804067,1.0876157,0.95205396,0.16301422,0.7872999,-0.21597317,-1.5344609,25.359602,47.0,46.0,62.0,54.0,2.0,41.0,82.0,62.0,11.0,5.0,10.0,17.0,7.0,10.0,-3.0,1.0,454.0
3.412,L101,-1.0,-1.0,0.0,-2.0,19.0,1002.0,0.88976693,1.1117884,1.0260649,0.35614976,1.1040204,4.0312257,4.427354,1.9518297,6.2174077,8.901807,9.834914,6.926544,26.93928,14.160857,15.098486,14.958773,117.93627,14.0,2.0,2.0,2.0,46.0,51.0,50.0,43.0,106.0,114.0,128.0,131.0,215.0,231.0,209.0,205.0,1549.0,R101,-360.0,-26.0,-87.0,-1336.0,1769.0,3583.0,-0.6812132,1.7789066,0.77827114,0.75602806,-2.7640522,1.400345,4.5535374,0.91622525,1.3779742,0.24858661,0.97752035,-0.1864424,0.16301422,0.7872999,-0.11332944,-0.9626641,9.030008,3.0,11.0,10.0,3.0,0.0,17.0,21.0,20.0,7.0,4.0,5.0,4.0,7.0,10.0,-2.0,4.0,124.0
3.465,L101,0.0,0.0,0.0,-2.0,18.0,1004.0,0.83500034,1.2654171,1.0010482,0.7105949,1.7089458,5.412117,4.9865475,2.5130994,6.564198,8.826017,10.507002,7.2149305,24.56296,11.689909,11.780475,11.884521,111.46278,13.0,5.0,1.0,6.0,66.0,72.0,65.0,54.0,110.0,113.0,135.0,135.0,201.0,205.0,165.0,169.0,1515.0,R101,216.0,-44.0,140.0,-129.0,1004.0,383.0,-0.774036,0.9898924,0.8080829,0.69159395,-2.7640522,0.79954964,4.193462,0.6487849,1.3527391,-0.28699034,0.9274927,-0.1864424,-0.14720464,0.7153573,1.5240719,-1.1498079,7.342493,2.0,2.0,6.0,1.0,0.0,8.0,7.0,11.0,8.0,0.0,1.0,4.0,2.0,8.0,16.0,3.0,79.0
3.502,L101,0.0,0.0,-1.0,-3.0,14.0,1002.0,0.62537456,1.3720835,1.1965274,0.7105949,1.7715249,5.82273,5.679866,2.8927345,5.7857947,8.213874,10.219805,7.813158,20.50001,8.781037,8.772003,9.686146,99.84326,9.0,7.0,8.0,6.0,68.0,78.0,82.0,61.0,101.0,105.0,132.0,143.0,176.0,170.0,121.0,141.0,1408.0,R101,225.0,0.0,-31.0,-226.0,519.0,342.0,-0.95849884,0.8930551,0.84917384,0.788982,-2.6130366,0.5997927,4.1688595,0.5069384,1.405584,-0.015593896,0.93664944,-0.4934752,0.037163474,0.6093758,1.3579235,-0.9626641,7.110229,0.0,1.0,3.0,4.0,1.0,5.0,6.0,4.0,6.0,2.0,2.0,1.0,5.0,5.0,14.0,4.0,63.0
3.519,L101,-2.0,0.0,0.0,-3.0,16.0,1001.0,0.7282036,1.538301,1.2281787,1.0470686,2.0317552,7.330609,5.552663,4.786412,5.7857947,8.826017,10.507002,8.520858,16.965693,7.1503725,7.0304646,6.3430276,95.37242,11.0,10.0,9.0,10.0,76.0,99.0,79.0,93.0,101.0,113.0,135.0,152.0,153.0,147.0,95.0,95.0,1378.0,R101,290.0,33.0,-74.0,84.0,713.0,757.0,-1.2309331,0.8930551,0.83362854,0.6291427,-2.7640522,0.8661904,4.1688595,0.523243,1.4356092,-0.15037605,0.91615796,-0.1864424,-0.20746252,0.751199,0.7491641,-0.9626641,6.2643194,-3.0,1.0,4.0,-1.0,0.0,9.0,6.0,5.0,5.0,1.0,-1.0,4.0,1.0,9.0,7.0,4.0,51.0
3.559,L101,-2.0,-1.0,0.0,-2.0,16.0,1001.0,1.6641189,1.8314093,1.5119236,1.2881181,2.2762952,8.881858,6.395645,5.4783087,6.0444465,9.947338,11.077273,9.436127,9.743766,5.2528877,5.0801897,4.4670153,90.376724,27.0,15.0,17.0,13.0,83.0,119.0,98.0,104.0,104.0,128.0,141.0,163.0,101.0,115.0,67.0,67.0,1362.0,R101,346.0,50.0,-24.0,-45.0,439.0,1138.0,-1.3202382,0.8930551,0.88597476,0.6291427,-2.7640522,0.3338313,4.1200867,0.47855392,1.405584,-0.015593896,0.91615796,-0.4934752,-0.08634382,0.6444469,1.1885669,-0.9626641,5.8530326,-4.0,1.0,1.0,-1.0,0.0,1.0,4.0,2.0,6.0,2.0,-1.0,1.0,3.0,6.0,12.0,4.0,37.0
3.606,L101,-3.0,-1.0,0.0,-4.0,9.0,1000.0,2.1761343,3.039996,2.5249617,1.4436396,2.46288,10.12468,7.281541,7.293859,6.9985046,10.969481,11.828488,12.609667,6.3747053,3.597998,3.6522727,2.8640518,95.24286,35.0,33.0,39.0,15.0,88.0,134.0,116.0,132.0,115.0,142.0,149.0,197.0,73.0,80.0,48.0,41.0,1437.0,R101,362.0,77.0,20.0,-147.0,151.0,1555.0,-1.2309331,1.2683654,0.84917384,0.6291427,-3.0753064,0.5332616,4.095915,0.523243,1.3527391,0.11738434,0.9274927,-0.1864424,0.22680476,0.7872999,1.4413807,-1.3403915,6.919129,-3.0,5.0,3.0,-1.0,-2.0,4.0,3.0,5.0,8.0,3.0,1.0,4.0,8.0,10.0,15.0,2.0,65.0
3.621,L101,-4.0,-2.0,0.0,-4.0,8.0,1006.0,2.3712084,4.127018,3.015892,2.0956562,2.958924,11.98157,8.972074,9.5108795,7.6062,11.547133,13.208165,14.168159,4.052733,2.4483325,1.998005,1.8048427,101.8668,38.0,47.0,48.0,24.0,100.0,155.0,146.0,165.0,122.0,150.0,164.0,212.0,51.0,52.0,28.0,22.0,1524.0,R101,365.0,68.0,109.0,-289.0,-91.0,2295.0,-1.1408108,1.2683654,0.93061465,0.69159395,-2.7640522,0.5332616,4.000637,0.47855392,1.4356092,-0.4254652,0.93664944,-0.5999362,0.037163474,0.7153573,1.5240719,-1.3403915,6.281222,-2.0,5.0,-1.0,1.0,0.0,4.0,-1.0,2.0,5.0,-1.0,2.0,0.0,5.0,8.0,16.0,2.0,45.0
3.659,L101,-4.0,-4.0,1.0,-1.0,8.0,1007.0,3.730115,5.6832447,4.0297294,2.490893,3.2838058,14.072354,12.027534,12.438182,8.211489,10.021013,13.750143,14.817273,1.2634943,1.6497122,0.8090736,1.1967388,109.4748,59.0,65.0,65.0,30.0,107.0,177.0,190.0,206.0,129.0,129.0,170.0,218.0,18.0,33.0,15.0,10.0,1621.0,R101,371.0,45.0,124.0,-487.0,-848.0,2787.0,-1.2309331,0.79405826,0.8666115,0.7235645,-2.6130366,0.5332616,4.0242467,0.47855392,1.5030708,-0.5658293,0.9274927,-0.9321988,0.22680476,0.751199,1.4413807,-0.5985127,6.329734,-3.0,0.0,2.0,2.0,1.0,4.0,0.0,2.0,3.0,-2.0,1.0,-3.0,8.0,9.0,15.0,6.0,45.0
3.726,L101,-16.0,-10.0,4.0,11.0,1.0,1044.0,4.770863,9.003039,4.408799,3.1471171,4.374713,18.13678,18.173655,15.496486,8.469747,8.5212555,12.660721,13.118786,0.39694083,0.78896344,0.42136043,0.91290903,122.80215,76.0,99.0,71.0,41.0,127.0,216.0,255.0,244.0,132.0,109.0,158.0,202.0,4.0,15.0,11.0,4.0,1764.0,R101,288.0,83.0,64.0,-416.0,-1964.0,2684.0,-1.2309331,0.8930551,0.88597476,0.69159395,-2.7640522,0.3338313,4.0479956,0.5802484,1.405584,-0.28699034,0.9206464,-0.5999362,0.29116505,0.8971685,1.6060321,-0.9626641,6.7087197,-3.0,1.0,1.0,1.0,0.0,1.0,1.0,8.0,6.0,0.0,0.0,0.0,9.0,13.0,17.0,4.0,59.0
3.762,L101,-85.0,-1.0,2.0,-16.0,-43.0,1239.0,6.9548116,12.672853,6.2075043,4.976204,6.4117618,29.263338,43.42817,27.44095,6.0444465,3.9498367,5.5644565,3.858618,0.39694083,0.7363365,-0.28503552,0.6875268,158.30873,116.0,133.0,98.0,78.0,156.0,305.0,400.0,346.0,104.0,52.0,84.0,81.0,4.0,14.0,4.0,-1.0,1974.0,R101,231.0,32.0,7.0,108.0,-2533.0,2105.0,-1.2309331,0.8930551,0.88597476,0.82242346,-2.7640522,0.40028092,4.000637,0.5069384,1.2908818,-0.28699034,0.9274927,-0.4934752,-0.08634382,0.823661,1.5240719,-1.5344609,5.679161,-3.0,1.0,1.0,5.0,0.0,2.0,-1.0,4.0,11.0,0.0,1.0,1.0,3.0,11.0,16.0,1.0,53.0
3.778,L101,-120.0,-1.0,1.0,-10.0,-92.0,1260.0,7.883764,12.006039,6.5528154,6.6802707,6.734663,36.424423,63.388306,42.133595,2.765595,2.379787,2.5139832,2.092488,0.39694083,0.23265727,-0.38901776,0.6875268,192.48383,134.0,127.0,103.0,113.0,160.0,351.0,465.0,420.0,63.0,32.0,48.0,46.0,4.0,5.0,3.0,-1.0,2073.0,R101,84.0,60.0,-74.0,264.0,-3647.0,954.0,-1.3202382,0.692807,0.88597476,0.7235645,-2.7640522,0.66635096,4.0479956,0.54091585,1.3527391,-0.15037605,0.9206464,-0.5999362,0.22680476,0.9343169,-0.0121766245,-1.3403915,4.8049455,-4.0,-1.0,1.0,2.0,0.0,6.0,1.0,6.0,8.0,1.0,0.0,0.0,8.0,14.0,-1.0,2.0,43.0
3.830,L101,-166.0,0.0,5.0,5.0,-138.0,1329.0,8.040533,13.459482,6.6222234,7.4573545,5.2904243,31.764093,64.125336,45.196396,1.5907557,1.8004907,1.3443327,0.9162328,0.74179983,0.40694413,-0.28503552,0.73176587,189.20312,137.0,140.0,104.0,127.0,141.0,322.0,467.0,432.0,42.0,24.0,27.0,23.0,10.0,8.0,4.0,0.0,2008.0,R101,-195.0,-66.0,75.0,-148.0,820.0,1122.0,-0.86649245,1.0846632,0.83362854,0.7235645,-2.4650414,1.4672487,4.1200867,0.54091585,1.2489771,2.739519,0.97752035,0.28637108,8.870025,3.5596178,18.54584,14.549854,56.216297,1.0,3.0,4.0,2.0,2.0,18.0,4.0,6.0,14.0,26.0,5.0,9.0,107.0,72.0,204.0,258.0,735.0
3.870,L101,-242.0,7.0,12.0,-6.0,-200.0,1438.0,8.040533,13.685846,8.030576,9.040068,2.7433784,19.593073,44.45765,38.15364,1.4060863,1.7310259,1.1748288,0.5312053,0.86577916,0.23265727,-0.07942656,0.64371467,150.25063,137.0,142.0,124.0,152.0,95.0,229.0,404.0,403.0,37.0,23.0,22.0,16.0,12.0,5.0,6.0,-2.0,1805.0,R101,-360.0,-134.0,15.0,527.0,-54.0,2523.0,-0.774036,0.9898924,0.84917384,0.75602806,-1.638215,1.2666298,4.0242467,0.5069384,1.2405494,8.3413725,3.0830038,2.54837,24.912851,12.296991,27.252663,19.728506,105.384964,2.0,2.0,3.0,3.0,8.0,15.0,0.0,4.0,24.0,105.0,47.0,43.0,225.0,196.0,274.0,303.0,1254.0
3.882,L101,-347.0,21.0,40.0,176.0,-324.0,1813.0,6.3819923,10.587613,6.7613645,9.746615,2.240233,11.169038,21.07251,23.673733,1.2685676,0.9638952,0.99591917,0.8080192,0.6222699,0.99363226,0.123114325,0.73176587,98.14029,105.0,114.0,106.0,162.0,82.0,146.0,279.0,320.0,32.0,11.0,8.0,21.0,8.0,19.0,8.0,0.0,1421.0,R101,-25.0,-15.0,5.0,-22.0,-91.0,1168.0,0.7071733,0.79405826,0.84917384,0.75602806,-0.57966906,3.4243383,4.1444016,0.6487849,2.403607,11.002996,6.2068624,5.325591,27.125452,15.347744,25.48984,17.130852,120.77723,18.0,0.0,3.0,3.0,17.0,47.0,5.0,11.0,59.0,147.0,85.0,104.0,238.0,229.0,261.0,282.0,1509.0
3.921,L101,-466.0,8.0,58.0,542.0,-1302.0,2949.0,3.9188957,6.7090483,3.3621864,4.8836346,1.2252418,6.1011677,11.118119,10.411935,1.1740463,0.5387615,1.0049974,1.0231618,1.4763035,0.4635567,0.022221994,0.6875268,54.120804,62.0,76.0,54.0,76.0,50.0,82.0,178.0,178.0,26.0,3.0,13.0,25.0,21.0,9.0,7.0,-1.0,859.0,R101,-6.0,0.0,0.0,-11.0,-5.0,1006.0,1.5713685,0.9898924,0.8199424,0.788982,-0.17236343,4.1783752,4.6619825,1.0613413,2.9700725,13.001677,7.3389845,5.711772,27.825733,16.03819,23.428946,15.680424,125.895325,28.0,2.0,5.0,4.0,21.0,58.0,25.0,24.0,69.0,174.0,98.0,111.0,242.0,236.0,245.0,269.0,1611.0
3.975,L101,-370.0,-86.0,69.0,-114.0,-284.0,3765.0,1.3549393,3.1136477,1.7146137,2.4270191,-0.2228055,2.6422114,4.8327994,2.2011373,1.6104891,0.3179901,1.037792,0.4746641,0.92940825,0.17301486,0.022221994,0.6875268,23.316673,22.0,34.0,22.0,29.0,11.0,29.0,61.0,48.0,5.0,-2.0,4.0,15.0,13.0,4.0,7.0,-1.0,301.0,R101,-5.0,-1.0,-1.0,-17.0,23.0,994.0,2.3479967,1.3574727,0.8199424,0.85634995,0.6980015,4.871788,5.244203,1.8688798,5.090783,14.774266,8.979406,6.6383133,24.746624,15.15336,18.318949,11.925904,123.69223,38.0,6.0,5.0,6.0,31.0,68.0,45.0,42.0,100.0,195.0,117.0,126.0,224.0,227.0,202.0,228.0,1660.0
4.030,L101,153.0,45.0,-212.0,344.0,2074.0,943.0,0.22299235,1.0623085,0.95407593,0.96459174,-0.90856284,1.179053,3.5628576,0.38733146,1.7918508,0.27855557,1.100041,0.06630566,0.45152625,0.112566754,0.123114325,0.86700326,12.215613,0.0,1.0,-1.0,9.0,-1.0,6.0,24.0,1.0,2.0,-3.0,1.0,8.0,5.0,3.0,8.0,3.0,66.0,R101,-2.0,0.0,0.0,-16.0,17.0,997.0,0.9742058,1.7789066,0.77350503,0.89075863,1.3271693,6.649426,5.6610923,2.6792462,5.9275537,16.072836,9.573513,7.484256,20.467852,13.459782,14.806647,9.807977,118.33473,21.0,11.0,12.0,7.0,40.0,93.0,58.0,57.0,111.0,209.0,124.0,138.0,197.0,209.0,170.0,195.0,1652.0
4.041,L101,206.0,85.0,-72.0,431.0,715.0,546.0,0.14972906,0.87324756,0.9321551,0.4464872,-0.78185743,0.9159696,3.4709802,0.5390452,1.9321578,0.27855557,1.0021396,0.12608112,0.45152625,0.0512933,-0.38901776,0.86700326,10.865497,-2.0,-3.0,-2.0,3.0,1.0,2.0,21.0,7.0,0.0,-3.0,7.0,9.0,5.0,2.0,3.0,3.0,53.0,R101,0.0,1.0,0.0,-15.0,17.0,993.0,1.8935965,2.671903,0.8059905,0.82242346,1.8906882,7.3088455,5.6278796,1.719542,5.5434155,15.598035,9.909931,7.484256,16.032925,11.520562,12.321901,8.618852,109.770744,32.0,23.0,19.0,5.0,50.0,102.0,57.0,39.0,106.0,204.0,128.0,138.0,166.0,187.0,146.0,168.0,1570.0
4.235,L101,353.0,-16.0,5.0,81.0,48.0,1791.0,0.115675956,0.9659907,0.91130126,0.35614976,-0.54407275,0.64866316,3.2044446,0.36488646,2.0886557,0.3179901,1.1570392,0.36030018,0.68147284,-0.07380916,-0.28503552,0.7764276,11.046079,-3.0,-1.0,-3.0,2.0,5.0,-2.0,12.0,0.0,-2.0,-2.0,-1.0,13.0,9.0,0.0,4.0,1.0,32.0,R101,0.0,1.0,-1.0,-16.0,17.0,991.0,1.5713685,3.4169607,0.82838345,0.9256469,1.7877057,7.680505,5.529406,1.5286542,6.1606994,15.135519,9.742009,7.3366375,13.93201,9.172639,9.710283,7.588408,102.04683,28.0,34.0,21.0,8.0,48.0,107.0,54.0,35.0,114.0,199.0,126.0,136.0,150.0,158.0,119.0,132.0,1469.0
4.250,L101,346.0,-24.0,-22.0,146.0,-290.0,2154.0,0.08343187,0.87324756,0.9321551,0.35614976,-0.7205044,0.7159244,3.2044446,0.59584934,2.0886557,0.27855557,1.1903547,0.41770005,0.5642031,-0.13767837,-0.38901776,0.86700326,10.920475,-4.0,-3.0,-2.0,2.0,2.0,-1.0,12.0,9.0,-2.0,-3.0,-2.0,14.0,7.0,-1.0,3.0,3.0,34.0,R101,-2.0,4.0,-2.0,-20.0,18.0,995.0,2.765928,5.94927,1.2839507,0.9256469,2.1300063,8.359998,6.4434724,1.768762,7.351101,16.16928,12.041839,10.386569,7.9120765,4.107593,5.348222,5.528642,98.47235,44.0,69.0,40.0,8.0,55.0,116.0,80.0,40.0,129.0,210.0,154.0,172.0,98.0,82.0,67.0,64.0,1428.0
4.290,L101,302.0,-72.0,-40.0,478.0,-888.0,2615.0,0.14972906,0.8282364,0.9321551,0.26464337,-0.60164267,0.9159696,3.2333996,0.34328243,1.8600168,0.27855557,1.0762466,0.18535511,0.34354064,-0.07380916,-0.38901776,0.73176587,10.078424,-2.0,-4.0,-2.0,1.0,4.0,2.0,13.0,-1.0,1.0,-3.0,2.0,10.0,3.0,0.0,3.0,0.0,27.0,R101,-2.0,4.0,-2.0,-25.0,14.0,990.0,3.085993,6.8108315,1.3899724,1.1071887,2.5831103,9.684827,6.714413,2.3439438,6.9501925,16.560024,13.474962,11.571308,5.711659,3.192747,4.3807387,4.868653,100.430565,49.0,79.0,43.0,13.0,66.0,133.0,87.0,51.0,124.0,214.0,172.0,184.0,76.0,65.0,54.0,53.0,1463.0
4.304,L101,287.0,5.0,-4.0,311.0,-1790.0,2469.0,0.22299235,0.9659907,0.9321551,-0.016990552,-0.9739776,1.5030082,3.1756516,0.32253042,1.7918508,0.40170717,1.0762466,0.06630566,0.86577916,-0.13767837,0.123114325,0.73176587,11.050452,0.0,-1.0,-2.0,-2.0,-2.0,11.0,11.0,-2.0,2.0,0.0,2.0,8.0,12.0,-1.0,8.0,0.0,44.0,R101,-27.0,-8.0,-3.0,-48.0,2.0,1037.0,4.4165444,7.084371,3.0233667,2.4791176,3.519394,12.707334,11.673999,8.789725,4.868346,9.941459,12.999594,12.085748,0.29116505,0.6797736,1.1025935,-0.42141443,95.24112,76.0,82.0,77.0,44.0,94.0,169.0,181.0,155.0,97.0,131.0,166.0,189.0,9.0,7.0,11.0,7.0,1495.0
4.356,L101,182.0,-45.0,65.0,580.0,-3062.0,1342.0,0.14972906,0.8282364,0.9321551,0.26464337,-0.90856284,0.8495664,3.1185477,0.41060627,1.7918508,0.49160206,0.99591917,0.18535511,0.45152625,-0.13767837,-0.18184212,0.6875268,9.929182,-2.0,-4.0,-2.0,1.0,-1.0,1.0,9.0,2.0,2.0,2.0,8.0,10.0,5.0,-1.0,5.0,-1.0,34.0,R101,-89.0,0.0,-6.0,-31.0,-49.0,1233.0,6.424973,13.483761,6.8785543,7.446526,3.6177862,18.495607,25.834755,18.893696,1.8382001,5.1714973,3.4589937,2.597719,0.48761344,0.7872999,0.3785097,-1.3403915,114.45509,135.0,139.0,138.0,122.0,97.0,228.0,316.0,279.0,47.0,55.0,52.0,44.0,12.0,10.0,3.0,2.0,1679.0
4.398,L101,2.0,-38.0,57.0,-804.0,-3854.0,919.0,0.14972906,0.91916835,0.91130126,0.07808286,-0.27362347,0.7159244,3.1470196,0.5390452,1.7275879,0.4459035,1.0021396,0.24414083,0.34354064,-0.13767837,-0.28503552,0.73176587,10.259011,-2.0,-2.0,-3.0,-1.0,10.0,-1.0,10.0,7.0,3.0,1.0,7.0,11.0,3.0,-1.0,4.0,0.0,46.0,R101,-135.0,-6.0,-7.0,-57.0,-84.0,1330.0,7.5327573,17.582228,7.4821486,9.646896,3.7179666,22.059713,30.822483,29.225376,1.3841316,2.2333262,1.7369409,1.1028469,0.9650231,0.751199,0.28283086,-1.5344609,134.99141,158.0,170.0,147.0,150.0,100.0,259.0,346.0,352.0,33.0,21.0,26.0,19.0,19.0,9.0,2.0,1.0,1812.0
4.411,L101,-279.0,176.0,-17.0,-584.0,-1441.0,791.0,0.08343187,0.7841428,0.91130126,0.07808286,-0.3784427,0.64866316,3.0340843,0.34328243,1.9321578,1.5943552,0.99591917,0.5312053,3.3848681,1.3784666,9.643367,6.972827,31.937714,-4.0,-5.0,-3.0,-1.0,8.0,-2.0,6.0,-1.0,0.0,21.0,8.0,16.0,44.0,27.0,134.0,104.0,352.0,R101,-201.0,-21.0,-16.0,-121.0,-127.0,1556.0,8.466638,19.06993,7.684489,11.163925,2.5068724,14.539909,23.238409,29.754416,1.2209738,0.37804067,0.961709,0.0083313575,1.4678724,1.0473517,0.4729377,-1.9332438,120.04856,173.0,181.0,150.0,168.0,64.0,189.0,298.0,355.0,20.0,5.0,4.0,6.0,26.0,17.0,4.0,-1.0,1659.0
4.446,L101,-189.0,107.0,-63.0,-191.0,1173.0,1592.0,0.08343187,0.7841428,0.91130126,0.7105949,-0.3784427,0.58109325,2.9236548,0.34328243,2.0083463,2.7594016,0.99799067,0.5873366,15.05639,4.741481,35.260994,40.301723,107.67273,-4.0,-5.0,-3.0,6.0,8.0,-3.0,2.0,-1.0,-1.0,37.0,12.0,17.0,140.0,105.0,378.0,388.0,1076.0,R101,-335.0,-60.0,-34.0,-207.0,-176.0,1930.0,8.5353,18.257723,8.636799,11.599609,0.77453697,8.976312,13.927813,19.930502,1.227121,0.24858661,0.961709,0.28637108,0.35608995,1.2806534,0.18585505,-1.5344609,93.65051,174.0,175.0,164.0,173.0,32.0,124.0,211.0,288.0,22.0,4.0,4.0,9.0,10.0,23.0,1.0,1.0,1415.0
4.501,L101,-97.0,96.0,-11.0,-69.0,13.0,2265.0,0.14972906,0.91916835,0.91130126,-0.11327149,0.10589952,0.78288835,2.8964322,0.30264163,1.6328622,6.476911,3.7603283,3.08469,28.155167,11.870993,29.858913,33.069324,123.86397,-2.0,-2.0,-3.0,-3.0,18.0,0.0,1.0,-3.0,43.0,83.0,64.0,66.0,222.0,207.0,345.0,350.0,1386.0,R101,-526.0,-17.0,-65.0,-784.0,-1009.0,3282.0,4.7803626,9.743769,5.3625045,4.855453,-0.57966906,6.5768685,10.256517,9.177317,1.2747478,1.2375529,1.0154818,1.247966,0.037163474,0.9717296,0.8390317,-1.7320627,55.064728,86.0,108.0,115.0,85.0,17.0,92.0,159.0,161.0,12.0,12.0,7.0,21.0,5.0,15.0,8.0,0.0,903.0
4.514,L101,-7.0,0.0,-1.0,-25.0,1.0,1021.0,0.62537456,0.91916835,0.91130126,0.1719577,0.820021,2.1393056,3.1756516,0.65562785,5.528382,8.5212555,7.3979635,5.462563,30.46339,14.664073,24.995834,24.342745,130.79462,9.0,-2.0,-3.0,0.0,37.0,21.0,11.0,11.0,98.0,109.0,103.0,109.0,235.0,236.0,309.0,292.0,1575.0,R101,-442.0,28.0,-61.0,334.0,-17.0,3702.0,2.6988423,3.7509308,1.5836129,1.5469275,-2.1779497,3.356177,5.864526,2.2352223,1.3527391,0.8789219,0.961709,-0.088089146,0.55420226,1.085563,-0.21597317,-1.5344609,21.852903,43.0,39.0,48.0,24.0,4.0,46.0,64.0,49.0,8.0,9.0,4.0,5.0,13.0,18.0,-3.0,1.0,372.0
4.552,L101,-2.0,-1.0,0.0,-2.0,14.0,1004.0,0.9453843,0.9659907,0.9321551,0.7105949,1.4050676,3.5222948,3.53206,0.9962451,6.2174077,10.021013,10.219805,6.3707576,30.824389,16.118853,19.043232,19.37821,131.20345,15.0,-1.0,-2.0,6.0,56.0,43.0,23.0,21.0,106.0,129.0,132.0,123.0,237.0,250.0,254.0,250.0,1642.0,R101,-492.0,54.0,-46.0,-604.0,3278.0,2559.0,-0.49478763,0.9898924,0.7830491,0.7235645,-2.9181287,1.5341839,4.5535374,0.7005093,1.3298384,-0.15037605,0.9206464,-0.4934752,0.099798664,1.0473517,0.08753522,-1.1498079,7.5633316,5.0,2.0,16.0,2.0,-1.0,19.0,21.0,13.0,9.0,1.0,0.0,1.0,6.0,17.0,0.0,3.0,114.0
4.616,L101,-3.0,0.0,0.0,-8.0,25.0,1006.0,0.78113025,1.0623085,1.0260649,0.53566635,1.6471323,5.1427746,4.608549,2.7281032,6.9985046,10.679251,10.982625,7.5854445,27.631784,14.562732,13.311303,14.158618,123.441986,12.0,1.0,2.0,4.0,64.0,68.0,55.0,58.0,115.0,138.0,140.0,140.0,219.0,235.0,186.0,196.0,1633.0,R101,214.0,-65.0,109.0,-300.0,936.0,260.0,-1.2309331,0.9898924,0.8080829,0.69159395,-3.0753064,0.8661904,4.2681437,0.6740619,1.3298384,-0.15037605,0.9144459,0.0083313575,0.037163474,0.8602836,1.1025935,-1.1498079,6.9441977,-3.0,2.0,6.0,1.0,-2.0,9.0,10.0,12.0,9.0,1.0,-3.0,6.0,5.0,12.0,11.0,3.0,79.0
4.655,L101,-1.0,-1.0,-1.0,-7.0,21.0,1001.0,0.7282036,1.4820763,1.2941169,1.0470686,2.3127623,7.0342913,5.1437845,3.6940985,6.304013,9.651392,10.219805,6.714876,15.783008,7.41762,8.171263,7.614498,94.61287,11.0,9.0,11.0,10.0,84.0,95.0,69.0,75.0,107.0,124.0,132.0,128.0,145.0,151.0,112.0,113.0,1376.0,R101,215.0,5.0,-44.0,-270.0,534.0,312.0,-1.1408108,0.8930551,0.84917384,0.7235645,-2.7640522,0.8661904,4.0718846,0.72810054,1.2908818,-0.15037605,0.9206464,-0.28676605,-0.024885884,0.751199,1.5240719,-1.3403915,6.911486,-2.0,1.0,3.0,2.0,0.0,9.0,2.0,14.0,11.0,1.0,0.0,3.0,4.0,9.0,16.0,2.0,75.0
4.709,L101,-4.0,-1.0,0.0,-5.0,17.0,1003.0,2.2410464,2.8229468,2.1223402,1.6694453,2.7854345,10.554402,7.0768743,6.7686224,7.6062,10.824513,12.107411,9.695342,6.2624364,3.3035948,4.191793,3.040751,93.07316,36.0,30.0,31.0,18.0,96.0,139.0,112.0,124.0,122.0,140.0,152.0,166.0,72.0,73.0,55.0,44.0,1410.0,R101,303.0,13.0,-74.0,78.0,691.0,787.0,-1.2309331,0.9898924,0.8666115,0.69159395,-2.9181287,0.93285894,4.095915,0.6487849,1.3779742,-0.4254652,0.91407496,-0.4934752,-0.14720464,0.751199,1.1885669,-1.1498079,6.092457,-3.0,2.0,2.0,1.0,-1.0,10.0,3.0,11.0,7.0,-1.0,-2.0,1.0,2.0,9.0,12.0,3.0,56.0
4.727,L101,-3.0,-2.0,0.0,-9.0,11.0,1002.0,2.6975994,3.8842988,2.7931712,1.8866427,2.6607947,11.527074,8.493098,7.5582027,7.519489,11.402977,14.0192585,12.913877,3.666547,2.6914802,2.598446,1.9110706,98.224045,43.0,44.0,44.0,21.0,93.0,150.0,138.0,136.0,121.0,148.0,173.0,200.0,47.0,58.0,35.0,24.0,1475.0,R101,347.0,28.0,-20.0,-147.0,339.0,1096.0,-1.0499684,0.8930551,0.83362854,0.69159395,-2.4650414,0.5332616,4.095915,0.6740619,1.3527391,-0.015593896,0.91615796,-0.38909772,-0.024885884,0.751199,1.0157061,-0.9626641,6.8500667,-1.0,1.0,4.0,1.0,2.0,4.0,3.0,12.0,8.0,2.0,-1.0,2.0,4.0,9.0,10.0,4.0,64.0
4.829,L101,-4.0,-3.0,0.0,-7.0,13.0,1004.0,3.7932613,4.971449,3.843906,2.2306676,3.533337,13.974128,10.685859,10.62285,8.297662,11.258676,13.83998,14.382926,1.8506688,1.5156964,1.2786435,1.2944504,107.37415,60.0,57.0,62.0,26.0,112.0,176.0,172.0,181.0,130.0,146.0,171.0,214.0,26.0,30.0,20.0,12.0,1595.0,R101,346.0,57.0,120.0,-364.0,-122.0,2063.0,-1.0499684,0.79405826,0.84917384,0.6291427,-2.4650414,0.26740894,4.0718846,0.55992734,1.3527391,-0.28699034,0.9206464,-0.5999362,0.099798664,0.6093758,1.2736645,-1.1498079,5.8760767,-1.0,0.0,3.0,-1.0,2.0,0.0,2.0,7.0,8.0,0.0,0.0,0.0,6.0,5.0,13.0,3.0,47.0
4.863,L101,-43.0,6.0,0.0,-12.0,3.0,1048.0,5.2916203,9.106727,6.001802,3.367426,5.2904243,22.177942,23.660847,16.756672,9.578601,8.136614,12.568917,8.764984,0.45152625,0.40694413,-0.38901776,0.86700326,132.03902,85.0,100.0,95.0,45.0,141.0,251.0,298.0,258.0,145.0,104.0,157.0,155.0,5.0,8.0,3.0,3.0,1853.0,R101,353.0,30.0,135.0,-554.0,-761.0,2657.0,-1.1408108,0.8930551,0.84917384,0.6291427,-2.6130366,0.40028092,4.1200867,0.62470526,1.3298384,-0.15037605,0.9206464,-0.8192602,0.099798664,0.6444469,1.5240719,-1.5344609,5.7773027,-2.0,1.0,3.0,-1.0,1.0,2.0,4.0,10.0,9.0,1.0,0.0,-2.0,6.0,6.0,16.0,1.0,55.0
4.879,L101,-77.0,-4.0,2.0,-9.0,-38.0,1095.0,6.009326,10.159192,6.6917405,4.08248,6.653017,28.69629,37.051857,22.50476,8.898303,5.9912996,8.474003,4.686414,0.2913384,0.57467,-0.28503552,0.73176587,151.21143,98.0,110.0,105.0,59.0,159.0,301.0,373.0,311.0,137.0,77.0,114.0,96.0,2.0,11.0,4.0,0.0,1957.0,R101,246.0,20.0,-67.0,-439.0,-2290.0,2108.0,-1.2309331,0.8930551,0.88597476,0.7235645,-2.6130366,0.3338313,4.0718846,0.7005093,1.3779742,-0.7081114,0.9274927,-0.38909772,0.16301422,0.7153573,1.1885669,-1.1498079,5.890239,-3.0,1.0,1.0,2.0,1.0,1.0,2.0,13.0,7.0,-3.0,1.0,2.0,7.0,8.0,12.0,3.0,55.0
4.918,L101,-91.0,-7.0,3.0,8.0,-69.0,1184.0,7.006403,11.785392,6.6222234,5.0688033,8.030638,36.08484,58.116405,32.052074,6.0444465,3.9498367,3.676074,2.3889508,0.50728446,0.62920773,-0.28503552,0.86700326,182.54456,117.0,125.0,104.0,80.0,175.0,349.0,450.0,373.0,104.0,52.0,63.0,52.0,6.0,12.0,4.0,3.0,2069.0,R101,135.0,88.0,-137.0,507.0,-3007.0,1221.0,-1.0499684,0.9898924,0.8666115,0.6291427,-2.320026,0.13464636,4.0718846,0.6740619,1.3527391,-0.28699034,0.9206464,-0.4934752,0.16301422,0.6797736,1.0157061,-1.1498079,6.1978526,-1.0,2.0,2.0,-1.0,3.0,-2.0,2.0,12.0,8.0,0.0,0.0,1.0,7.0,7.0,10.0,3.0,53.0
4.969,L101,-128.0,-14.0,1.0,-14.0,-113.0,1300.0,7.52129,12.3385515,6.5528154,5.9680877,7.323072,43.5037,80.2809,42.380547,3.1164725,2.682582,1.8756841,1.2335603,0.45152625,0.40694413,-0.49379984,0.6875268,215.82945,127.0,130.0,103.0,99.0,167.0,389.0,506.0,421.0,68.0,36.0,38.0,29.0,5.0,8.0,2.0,-1.0,2127.0,R101,-50.0,-56.0,32.0,1134.0,-3573.0,994.0,-1.0499684,0.8930551,0.8199424,0.66011906,-2.1779497,0.5332616,4.095915,0.6740619,1.3779742,-0.015593896,0.9274927,-0.28676605,0.22680476,0.8602836,0.5661601,0.09050758,8.195299,-1.0,1.0,5.0,0.0,4.0,4.0,3.0,12.0,7.0,2.0,1.0,3.0,8.0,12.0,5.0,10.0,76.0
4.985,L101,-176.0,-10.0,4.0,25.0,-158.0,1298.0,8.847477,14.254724,7.3219337,7.171459,5.575401,37.63658,71.555374,44.15104,1.9708807,1.9415414,1.1748288,0.06630566,0.45152625,0.17301486,-0.28503552,0.6875268,202.69458,152.0,147.0,114.0,122.0,145.0,358.0,486.0,428.0,50.0,26.0,22.0,8.0,5.0,4.0,4.0,-1.0,2070.0,R101,-268.0,-64.0,85.0,-226.0,-744.0,999.0,-0.49478763,0.79405826,0.83362854,0.69159395,-2.0387714,0.8661904,4.095915,0.6018505,1.3527391,0.8789219,0.9954594,0.54836124,4.23654,2.1296027,7.0841923,7.045856,29.62135,5.0,0.0,4.0,1.0,5.0,9.0,3.0,9.0,8.0,9.0,6.0,12.0,60.0,43.0,89.0,108.0,371.0
5.022,L101,-236.0,-11.0,15.0,53.0,-220.0,1346.0,8.792124,16.451777,7.959351,8.702515,3.0036469,25.05516,54.206875,39.053974,1.9182317,1.4608864,1.1748288,-0.24055967,1.059888,0.23265727,-0.07942656,0.82150817,169.57344,151.0,166.0,123.0,147.0,101.0,274.0,438.0,407.0,49.0,19.0,22.0,3.0,15.0,5.0,6.0,2.0,1928.0,R101,-272.0,-31.0,102.0,132.0,380.0,1573.0,0.7071733,0.9898924,0.7980176,0.9256469,-0.90978354,1.0662806,4.095915,0.54091585,1.3092324,4.951553,1.6344278,1.1028469,17.83271,8.715642,28.964605,23.812443,96.53752,18.0,2.0,7.0,8.0,14.0,12.0,3.0,6.0,10.0,52.0,24.0,19.0,179.0,152.0,286.0,332.0,1124.0
5.036,L101,-316.0,25.0,27.0,77.0,-343.0,1520.0,8.519098,14.94271,8.746883,10.9608555,2.3496442,15.479085,30.46248,28.237808,1.6328622,0.7950735,1.0049974,0.3024515,0.86577916,1.1897804,-0.28503552,0.6875268,125.892006,146.0,153.0,134.0,178.0,85.0,191.0,340.0,351.0,43.0,8.0,13.0,12.0,12.0,23.0,4.0,-1.0,1692.0,R101,-81.0,-63.0,-3.0,51.0,23.0,2094.0,0.6169291,0.9898924,0.88597476,0.85634995,-0.90978354,1.0662806,4.0479956,0.5069384,1.4078658,10.00564,5.1730304,4.4894414,25.752464,14.577766,26.292572,19.85987,115.619225,17.0,2.0,1.0,6.0,14.0,12.0,1.0,4.0,34.0,132.0,73.0,87.0,230.0,221.0,267.0,304.0,1405.0
5.125,L101,-417.0,-107.0,33.0,214.0,-935.0,3461.0,3.8561904,5.2347794,2.3699443,4.1792974,0.85268205,4.353264,7.026421,4.172376,1.1667824,0.63730115,0.99591917,1.0761755,1.7738748,0.84098905,-0.07942656,0.6875268,39.144096,61.0,60.0,36.0,61.0,38.0,56.0,111.0,83.0,20.0,5.0,8.0,26.0,25.0,16.0,6.0,-1.0,611.0,R101,-10.0,-3.0,1.0,-16.0,37.0,1018.0,1.0618607,0.9898924,0.84917384,0.82242346,-0.6872919,4.3164005,4.5804095,0.9511102,2.8508651,11.85557,6.7290764,5.5986075,27.474438,16.03819,23.807302,17.482885,124.72092,22.0,2.0,3.0,5.0,16.0,60.0,22.0,21.0,67.0,159.0,91.0,109.0,240.0,236.0,248.0,285.0,1586.0
5.145,L101,-278.0,-113.0,60.0,558.0,660.0,3812.0,1.1169024,2.1438167,1.399383,1.5198902,-0.90856284,2.3282566,3.8155587,0.5670702,1.6104891,0.63730115,1.0762466,-0.17807701,0.68147284,0.112566754,-0.18184212,0.7764276,16.516901,18.0,20.0,14.0,16.0,-1.0,24.0,32.0,8.0,5.0,5.0,2.0,4.0,9.0,3.0,5.0,1.0,165.0,R101,-4.0,-1.0,0.0,-32.0,-8.0,999.0,1.8935965,1.2683654,0.7897148,0.69159395,0.017956518,4.2473493,5.18285,1.719542,3.5378888,12.764818,8.033632,6.4416223,26.263044,17.259476,19.810472,14.549854,124.47177,32.0,5.0,8.0,1.0,23.0,59.0,43.0,39.0,78.0,171.0,106.0,123.0,233.0,248.0,215.0,258.0,1642.0
5.230,L101,262.0,119.0,-85.0,166.0,1197.0,871.0,0.22299235,1.1621382,0.95407593,0.96459174,-0.8445332,0.8495664,3.5014343,0.34328243,1.7275879,0.49160206,1.2269567,-0.43155134,1.2634943,0.0512933,-0.07942656,0.6875268,12.091031,0.0,3.0,-1.0,9.0,0.0,1.0,22.0,-1.0,3.0,2.0,-3.0,0.0,18.0,2.0,6.0,-1.0,60.0,R101,-3.0,-1.0,-1.0,-23.0,16.0,995.0,0.7071733,1.3574727,0.77827114,0.96101207,-0.07612673,5.858419,5.795915,2.7937212,4.219389,14.246801,9.064681,7.7106605,22.47808,15.839301,15.98931,11.132425,118.85651,18.0,6.0,10.0,9.0,22.0,82.0,62.0,59.0,88.0,189.0,118.0,141.0,210.0,234.0,181.0,217.0,1646.0
5.246,L101,245.0,-8.0,29.0,134.0,683.0,397.0,0.18552329,0.9659907,0.9321551,1.0470686,-0.78185743,0.7159244,3.3806357,0.38733146,2.0083463,0.3179901,1.1269534,-0.36728334,1.1267163,0.23265727,-0.07942656,0.6875268,11.886251,-1.0,-1.0,-2.0,10.0,1.0,-1.0,18.0,1.0,-1.0,-2.0,0.0,1.0,16.0,5.0,6.0,-1.0,49.0,R101,2.0,1.0,0.0,-21.0,15.0,998.0,-0.21431808,1.6148312,0.94815916,0.9256469,1.1317731,7.605852,6.0752697,3.02617,3.4724658,12.302722,7.860379,8.101214,12.680647,9.876517,10.083279,7.934959,93.425575,8.0,9.0,28.0,8.0,37.0,106.0,70.0,63.0,77.0,165.0,104.0,146.0,140.0,167.0,123.0,146.0,1397.0
5.339,L101,376.0,8.0,35.0,-75.0,261.0,1478.0,0.22299235,0.8282364,0.91130126,0.53566635,-0.90856284,0.58109325,3.2044446,0.41060627,2.0083463,0.3590551,1.1570392,-0.30362397,0.74179983,0.112566754,-0.38901776,0.7764276,10.24837,0.0,-4.0,-3.0,4.0,-1.0,-3.0,12.0,2.0,-1.0,-1.0,-1.0,2.0,10.0,3.0,3.0,1.0,23.0,R101,1.0,0.0,-1.0,-27.0,14.0,997.0,-0.21431808,2.1672602,1.017704,0.9968515,0.017956518,7.9054546,6.147187,3.6238484,3.0306902,11.782447,8.379064,8.262025,10.20062,7.192983,8.097571,7.2286077,85.83595,8.0,16.0,31.0,10.0,23.0,110.0,72.0,73.0,70.0,158.0,110.0,148.0,119.0,131.0,101.0,116.0,1296.0
5.353,L101,406.0,-10.0,35.0,8.0,275.0,2022.0,0.115675956,1.0137068,0.8915324,0.35614976,-0.7205044,0.64866316,3.1756516,0.36488646,2.0886557,0.24079579,1.2269567,-0.17807701,0.74179983,0.17301486,-0.28503552,0.64371467,10.497587,-3.0,0.0,-4.0,2.0,2.0,-2.0,11.0,0.0,-2.0,-4.0,-3.0,4.0,10.0,4.0,4.0,-2.0,17.0,R101,0.0,0.0,-2.0,-29.0,17.0,997.0,0.25089818,2.8103027,1.186192,1.3003229,0.37357467,8.589698,6.596928,5.2395425,2.6773777,11.565406,8.379064,11.268289,6.987823,4.6246696,6.676417,6.4132447,84.93974,13.0,25.0,37.0,18.0,27.0,119.0,84.0,99.0,64.0,155.0,110.0,181.0,89.0,91.0,84.0,85.0,1281.0
5.404,L101,402.0,-39.0,-29.0,158.0,-286.0,2626.0,0.26207143,1.0623085,0.91130126,0.6236984,-0.66044307,0.78288835,3.0902352,0.32253042,2.0083463,0.24079579,1.3102509,-0.30362397,0.5642031,0.112566754,-0.38901776,0.7764276,10.71454,1.0,1.0,-3.0,5.0,3.0,0.0,8.0,-2.0,-1.0,-4.0,-5.0,2.0,7.0,3.0,3.0,1.0,19.0,R101,-2.0,1.0,-3.0,-27.0,14.0,995.0,1.6533073,4.7907195,1.979106,2.086611,0.99380946,8.821087,7.8705487,8.532964,2.403607,9.561497,9.742009,13.912396,3.6248229,2.8892722,3.8694198,5.12793,87.859116,29.0,54.0,57.0,36.0,35.0,122.0,114.0,151.0,59.0,125.0,126.0,206.0,53.0,59.0,47.0,57.0,1330.0
5.548,L101,240.0,-35.0,-7.0,100.0,-3107.0,2555.0,0.22299235,0.8282364,0.9321551,0.07808286,-0.90856284,0.78288835,3.0902352,0.34328243,1.7275879,0.3590551,1.0555149,-0.36728334,0.68147284,-0.07380916,-0.28503552,0.73176587,9.198578,0.0,-4.0,-2.0,-1.0,-1.0,0.0,8.0,-1.0,3.0,-1.0,3.0,1.0,9.0,0.0,4.0,0.0,18.0,R101,-5.0,0.0,-3.0,-36.0,11.0,1002.0,2.0490227,5.01096,1.886476,2.6327543,1.1984066,8.898602,8.647531,10.636979,2.565472,9.68722,10.905295,14.245496,1.9948707,2.5004272,2.7692547,3.9359612,89.56473,34.0,57.0,55.0,47.0,38.0,123.0,130.0,183.0,62.0,127.0,140.0,209.0,33.0,51.0,32.0,41.0,1362.0
5.614,L101,86.0,-46.0,17.0,-93.0,-4207.0,1091.0,0.14972906,1.1117884,0.91130126,0.07808286,-0.32549277,0.8495664,3.1185477,0.36488646,1.8600168,0.5387615,1.0555149,-0.30362397,0.45152625,-0.010825335,-0.07942656,0.64371467,10.414067,-2.0,2.0,-3.0,-1.0,9.0,1.0,9.0,0.0,1.0,3.0,3.0,2.0,5.0,1.0,6.0,-2.0,34.0,R101,-58.0,-14.0,-6.0,-52.0,-28.0,1097.0,4.493365,7.848232,3.487312,7.8249874,2.5452807,12.618812,18.257162,22.18816,2.0108526,6.066715,6.990533,6.06554,0.099798664,0.823661,0.4729377,-0.9626641,100.83067,78.0,90.0,85.0,127.0,65.0,168.0,257.0,306.0,51.0,68.0,94.0,117.0,6.0,11.0,4.0,4.0,1531.0
5.653,L101,-324.0,167.0,-19.0,-917.0,-30.0,3028.0,0.22299235,0.87324756,0.91130126,-0.2107684,-0.7205044,0.9159696,2.9510303,0.30264163,1.1748728,4.847407,2.4445226,1.993321,23.237793,8.857085,26.12696,29.463291,103.39116,0.0,-3.0,-3.0,-4.0,2.0,2.0,3.0,-3.0,19.0,63.0,47.0,44.0,193.0,171.0,318.0,328.0,1177.0,R101,-263.0,-31.0,-12.0,-140.0,-80.0,1934.0,6.227955,13.998722,6.412748,13.221185,0.9224014,9.6052685,21.150434,34.3295,1.239265,-0.4254652,1.1769611,-0.088089146,1.0353336,0.9343169,1.1025935,-1.1498079,109.69332,130.0,143.0,131.0,191.0,34.0,132.0,282.0,379.0,15.0,-1.0,13.0,5.0,20.0,14.0,11.0,3.0,1502.0
5.668,L101,-5.0,0.0,-1.0,-9.0,-9.0,1014.0,0.7282036,1.2133504,0.9321551,0.4464872,0.5803147,3.2699814,4.2165217,2.5663476,5.103089,7.27582,9.544907,8.044954,27.805862,14.867797,18.57014,18.121904,123.28783,11.0,4.0,-2.0,3.0,30.0,39.0,44.0,55.0,93.0,93.0,125.0,146.0,220.0,238.0,249.0,238.0,1586.0,R101,-571.0,-2.0,-92.0,-773.0,-1097.0,3404.0,4.377255,4.7907195,2.9669151,3.3372586,-1.7689453,4.6628733,8.201496,6.2493067,1.4356092,0.63181406,1.0154818,0.7953007,0.099798664,0.7872999,0.18585505,-1.3403915,36.427643,75.0,54.0,76.0,60.0,7.0,65.0,121.0,115.0,5.0,7.0,7.0,15.0,6.0,10.0,1.0,2.0,626.0
5.707,L101,-2.0,-2.0,0.0,-13.0,17.0,1006.0,0.83500034,1.1117884,1.052079,1.208818,1.0115192,4.2885704,4.8709135,3.229933,4.9346166,8.367896,10.123785,8.440397,25.066006,13.568653,13.918372,13.466255,115.4946,13.0,2.0,3.0,12.0,43.0,55.0,62.0,67.0,91.0,107.0,131.0,151.0,204.0,225.0,194.0,188.0,1548.0,R101,-361.0,37.0,-65.0,-389.0,808.0,3948.0,0.9742058,2.3880916,1.0696614,1.3003229,-3.0753064,2.1381233,5.244203,1.8185468,1.3527391,0.11738434,0.93664944,-0.1864424,0.22680476,0.7872999,-0.21597317,-1.1498079,13.726501,21.0,19.0,33.0,18.0,-2.0,28.0,45.0,41.0,8.0,3.0,2.0,4.0,8.0,10.0,-3.0,3.0,238.0
5.720,L101,0.0,-1.0,0.0,-9.0,16.0,1004.0,1.2945465,1.4266679,1.3283728,1.208818,1.7089458,6.3835726,5.264049,4.786412,6.1308823,8.901807,10.411416,8.764984,20.50001,10.466335,9.307294,9.383001,107.26711,21.0,8.0,12.0,12.0,66.0,86.0,72.0,93.0,105.0,114.0,134.0,155.0,176.0,191.0,129.0,137.0,1511.0,R101,-72.0,135.0,1.0,-1113.0,3590.0,-707.0,-0.774036,1.2683654,0.7980176,0.75602806,-2.7640522,0.93285894,4.4215207,0.7005093,1.3527391,-0.15037605,0.9206464,0.10285662,-0.024885884,0.9343169,0.08753522,-1.5344609,7.027583,2.0,5.0,7.0,3.0,0.0,10.0,16.0,13.0,8.0,1.0,0.0,7.0,4.0,14.0,0.0,1.0,91.0
5.778,L101,-1.0,-1.0,0.0,-9.0,18.0,1004.0,1.9823542,1.9541074,2.170734,2.0268676,2.3127623,7.2561083,6.302621,5.224978,5.9581122,9.12824,10.982625,9.181018,12.798294,6.450619,6.0021625,5.72562,95.457214,32.0,17.0,32.0,23.0,84.0,98.0,96.0,100.0,103.0,117.0,140.0,160.0,124.0,136.0,80.0,86.0,1428.0,R101,222.0,24.0,126.0,354.0,1324.0,1281.0,-0.86649245,0.9898924,0.77350503,0.6291427,-3.2356255,0.79954964,4.293332,0.6487849,1.405584,-0.015593896,0.9206464,-0.38909772,-0.26711157,0.8602836,0.5661601,-0.9626641,6.150295,1.0,2.0,12.0,-1.0,-3.0,8.0,11.0,11.0,6.0,2.0,0.0,2.0,0.0,12.0,5.0,4.0,72.0
5.809,L101,-2.0,-2.0,-1.0,-10.0,16.0,1004.0,1.9181622,3.568771,2.3699443,2.4270191,2.0317552,8.403997,6.5848546,6.8340197,5.2725616,9.577079,10.982625,9.436127,6.0397115,4.0354247,3.8082244,3.1001725,86.39045,31.0,40.0,36.0,29.0,76.0,113.0,102.0,125.0,95.0,123.0,140.0,163.0,70.0,90.0,50.0,45.0,1328.0,R101,252.0,-11.0,41.0,-284.0,709.0,366.0,-1.1408108,0.5892044,0.83362854,0.75602806,-3.0753064,0.8661904,4.1688595,0.5802484,1.405584,-0.5658293,0.9144459,-0.1864424,-0.14720464,0.751199,0.7491641,-1.1498079,5.34915,-2.0,-2.0,4.0,3.0,-2.0,9.0,6.0,8.0,6.0,-2.0,-3.0,4.0,2.0,9.0,7.0,3.0,50.0
5.878,L101,-3.0,-3.0,0.0,-8.0,10.0,1004.0,3.2826588,4.5426297,3.782559,2.6780214,2.3127623,9.45322,8.035142,8.627138,5.7857947,8.5212555,10.219805,10.680692,2.3308513,2.2439432,1.998005,1.8577907,86.35227,52.0,52.0,61.0,33.0,84.0,126.0,130.0,152.0,101.0,109.0,132.0,177.0,32.0,47.0,28.0,23.0,1339.0,R101,268.0,41.0,-65.0,-70.0,560.0,576.0,-1.2309331,0.79405826,0.84917384,0.75602806,-3.0753064,0.66635096,4.2182093,0.6487849,1.405584,-0.15037605,0.93664944,0.19552408,-0.14720464,0.7872999,0.7491641,-0.9626641,6.440343,-3.0,0.0,3.0,3.0,-2.0,6.0,8.0,11.0,6.0,1.0,2.0,8.0,2.0,10.0,7.0,4.0,66.0
5.917,L101,-14.0,-4.0,2.0,-7.0,4.0,1017.0,5.0049043,9.003039,5.0595255,3.4212072,2.958924,13.199209,13.253855,14.729249,5.442913,7.3548875,12.843838,11.527126,0.45152625,0.84098905,0.123114325,0.91290903,106.12723,80.0,99.0,81.0,46.0,100.0,168.0,205.0,235.0,97.0,94.0,160.0,186.0,5.0,16.0,8.0,4.0,1584.0,R101,335.0,69.0,-48.0,110.0,577.0,1053.0,-1.1408108,0.79405826,0.8666115,0.66011906,-3.2356255,0.8661904,4.1444016,0.6018505,1.3779742,-0.015593896,0.9206464,0.19552408,-0.14720464,0.823661,0.8390317,-0.9626641,6.58817,-2.0,0.0,2.0,0.0,-3.0,9.0,5.0,9.0,7.0,2.0,0.0,8.0,2.0,11.0,8.0,4.0,62.0
5.930,L101,-26.0,10.0,2.0,-1.0,-7.0,1015.0,6.063073,10.587613,6.001802,3.9845905,3.3325207,16.414362,18.173655,19.465302,5.0187197,5.7471247,10.123785,9.522077,0.14204775,0.57467,-0.49379984,0.82150817,115.47906,99.0,114.0,95.0,57.0,108.0,200.0,255.0,285.0,92.0,74.0,131.0,164.0,-1.0,11.0,2.0,2.0,1688.0,R101,375.0,82.0,13.0,155.0,342.0,1541.0,-1.2309331,0.79405826,0.84917384,0.6291427,-3.0753064,0.5997927,4.0718846,0.5802484,1.405584,-0.5658293,0.91615796,-0.088089146,-0.14720464,0.7153573,1.1885669,-1.1498079,5.492796,-3.0,0.0,3.0,-1.0,-2.0,5.0,2.0,8.0,6.0,-2.0,-1.0,5.0,2.0,8.0,12.0,3.0,45.0
5.967,L101,-57.0,9.0,3.0,-12.0,-30.0,1141.0,6.7996836,12.44979,7.3219337,6.1659474,4.49774,19.707241,25.138052,24.7688,4.8507957,4.1122165,7.4957113,6.926544,0.39694083,0.23265727,-0.38901776,0.7764276,131.25145,113.0,131.0,114.0,103.0,129.0,230.0,308.0,328.0,90.0,54.0,104.0,131.0,4.0,5.0,3.0,1.0,1848.0,R101,375.0,57.0,68.0,90.0,39.0,1960.0,-1.2309331,0.692807,0.8666115,0.7235645,-2.9181287,0.3338313,4.095915,0.6487849,1.3779742,-0.15037605,0.9206464,0.19552408,0.16301422,0.823661,1.2736645,-0.42141443,7.3951464,-3.0,-1.0,2.0,2.0,-1.0,1.0,3.0,11.0,7.0,1.0,0.0,8.0,7.0,11.0,13.0,7.0,68.0
5.984,L101,-65.0,6.0,6.0,-5.0,-52.0,1108.0,7.4697533,12.784674,7.3924227,6.0171804,4.68714,24.159279,37.936657,37.05824,3.5629528,3.1491895,4.6378765,3.7528043,0.24034686,0.57467,0.022221994,0.7764276,154.22185,126.0,134.0,115.0,100.0,132.0,267.0,377.0,398.0,74.0,42.0,74.0,79.0,1.0,11.0,7.0,1.0,1938.0,R101,385.0,57.0,79.0,-74.0,-332.0,2711.0,-1.1408108,0.692807,0.8666115,0.788982,-2.6130366,0.40028092,4.095915,0.46653515,1.405584,-0.28699034,0.9144459,0.37543488,0.35608995,0.8971685,0.92786545,-0.42141443,7.7254677,-2.0,-1.0,2.0,4.0,1.0,2.0,3.0,1.0,6.0,0.0,-3.0,10.0,10.0,13.0,9.0,7.0,62.0
6.034,L101,-93.0,4.0,10.0,-10.0,-93.0,1167.0,7.160944,13.121259,7.1110053,7.3418326,4.623358,28.83733,52.044926,48.202923,2.3752713,2.379787,2.4445226,2.2408373,0.5642031,0.5194591,-0.38901776,0.64371467,179.22235,120.0,137.0,111.0,125.0,131.0,302.0,431.0,443.0,57.0,32.0,47.0,49.0,7.0,10.0,3.0,-2.0,2003.0,R101,392.0,41.0,30.0,-26.0,-1670.0,3324.0,-0.95849884,0.9898924,0.84917384,0.66011906,-3.2356255,0.40028092,4.1200867,0.523243,1.405584,-0.28699034,0.9206464,0.0083313575,-0.08634382,0.8602836,1.5240719,-1.1498079,6.544447,0.0,2.0,3.0,0.0,-3.0,2.0,4.0,5.0,6.0,0.0,0.0,6.0,3.0,12.0,16.0,3.0,59.0
6.075,L101,-124.0,0.0,4.0,-79.0,-125.0,1207.0,7.6245008,14.94271,7.746145,9.040068,4.1363974,29.838223,61.226177,52.02003,1.4746094,1.6623048,1.4255674,1.0231618,0.68147284,0.23265727,-0.49379984,0.73176587,193.312,129.0,153.0,120.0,152.0,123.0,309.0,459.0,456.0,39.0,22.0,29.0,25.0,9.0,5.0,2.0,0.0,2032.0,R101,257.0,33.0,18.0,113.0,-3399.0,2251.0,-0.86649245,0.48315126,0.83362854,0.69159395,-2.7640522,0.5332616,4.0479956,0.5069384,1.3298384,-0.7081114,0.93664944,-0.1864424,-0.26711157,0.823661,1.3579235,-1.9332438,4.8191876,1.0,-3.0,4.0,1.0,0.0,4.0,1.0,4.0,9.0,-3.0,2.0,4.0,0.0,11.0,14.0,-1.0,48.0
6.087,L101,-166.0,-5.0,1.0,-43.0,-180.0,1264.0,7.7279577,13.572577,8.891005,10.190211,3.3818269,25.18466,49.966217,48.771053,1.4746094,1.3308556,1.1470188,0.4746641,0.6222699,0.17301486,-0.07942656,0.73176587,173.5603,131.0,141.0,136.0,168.0,109.0,275.0,424.0,445.0,39.0,17.0,21.0,15.0,8.0,4.0,6.0,0.0,1939.0,R101,52.0,107.0,-33.0,8.0,-3939.0,934.0,-0.95849884,0.79405826,0.84917384,0.6291427,-2.6130366,0.66635096,4.0479956,0.6018505,1.405584,0.11738434,0.9274927,-0.088089146,0.099798664,0.7153573,0.28283086,-0.9626641,6.514731,0.0,0.0,3.0,-1.0,1.0,6.0,1.0,9.0,6.0,3.0,1.0,5.0,6.0,8.0,2.0,4.0,54.0
6.141,L101,-226.0,-11.0,14.0,67.0,-239.0,1432.0,7.160944,13.121259,8.173251,11.039991,2.3869514,16.837793,36.83374,42.133595,1.2685676,1.1427956,1.026456,0.5873366,0.6222699,0.3496027,-0.07942656,0.73176587,143.33691,120.0,137.0,126.0,179.0,86.0,204.0,372.0,420.0,32.0,14.0,15.0,17.0,8.0,7.0,6.0,0.0,1743.0,R101,-297.0,-35.0,33.0,1490.0,-4418.0,1839.0,-0.95849884,0.8930551,0.8080829,0.6291427,-2.9181287,0.3338313,4.000637,0.49203193,1.405584,1.1195782,0.961709,0.54836124,1.9181497,1.4416106,3.7237346,6.0426784,20.441559,0.0,1.0,6.0,-1.0,-1.0,1.0,-1.0,3.0,6.0,11.0,4.0,12.0,32.0,27.0,45.0,75.0,220.0
6.178,L101,-328.0,45.0,30.0,-39.0,-466.0,1614.0,6.487105,9.419541,7.959351,11.522363,2.0998187,11.347437,20.561869,28.237808,1.247229,0.7950735,1.1470188,0.5873366,1.6980313,0.4635567,-0.18184212,0.73176587,104.12346,107.0,103.0,123.0,185.0,78.0,148.0,275.0,351.0,31.0,8.0,21.0,17.0,24.0,9.0,5.0,0.0,1485.0,R101,-212.0,-107.0,65.0,-307.0,969.0,675.0,0.9742058,1.0846632,0.8199424,0.788982,-2.1779497,0.79954964,4.095915,0.46653515,1.3092324,2.837085,1.061603,0.10285662,6.987823,3.5063636,16.97615,12.316334,51.94929,21.0,3.0,5.0,4.0,4.0,8.0,3.0,1.0,10.0,27.0,9.0,7.0,89.0,71.0,190.0,233.0,685.0
6.230,L101,-393.0,-83.0,53.0,322.0,-712.0,3501.0,2.3060787,3.8045368,2.3699443,3.367426,0.01652525,2.4539425,5.1437845,2.5130994,1.4200655,0.40170717,0.99591917,0.24414083,1.8506688,0.62920773,-0.18184212,0.73176587,28.066967,37.0,43.0,36.0,45.0,16.0,26.0,69.0,54.0,9.0,0.0,8.0,11.0,26.0,12.0,5.0,0.0,397.0,R101,-392.0,-154.0,33.0,872.0,-174.0,2976.0,1.1487815,1.3574727,0.8080829,0.75602806,-1.9024504,0.5997927,4.0718846,0.45600685,1.2747478,7.922576,3.0830038,2.54837,23.598738,11.520562,27.672482,21.21106,106.12714,23.0,6.0,6.0,3.0,6.0,5.0,2.0,0.0,12.0,98.0,47.0,43.0,217.0,187.0,277.0,314.0,1246.0
6.388,L101,271.0,-17.0,-4.0,-209.0,468.0,714.0,0.115675956,0.87324756,0.9770462,0.4464872,-1.0408092,0.78288835,3.1185477,0.36488646,1.8600168,0.3179901,1.1903547,0.24414083,0.74179983,-0.010825335,-0.49379984,0.73176587,10.219412,-3.0,-3.0,0.0,3.0,-3.0,0.0,9.0,0.0,1.0,-2.0,-2.0,11.0,10.0,1.0,2.0,0.0,24.0,R101,-39.0,-23.0,6.0,-40.0,-76.0,1195.0,0.8858494,0.79405826,0.83362854,0.7235645,-0.4744062,2.8128917,4.1200867,0.6740619,2.3513258,10.529,6.2937713,5.487735,27.474438,15.740345,24.834,17.721142,120.8015,20.0,0.0,4.0,2.0,18.0,38.0,4.0,12.0,58.0,140.0,86.0,107.0,240.0,233.0,256.0,287.0,1505.0
6.441,L101,336.0,-18.0,-57.0,-161.0,352.0,1076.0,0.08343187,0.87324756,0.95407593,0.26464337,-0.9739776,0.64866316,3.1185477,0.32253042,2.0083463,0.24079579,1.1903547,0.3024515,0.86577916,0.17301486,-0.18184212,0.6875268,10.577589,-4.0,-3.0,-1.0,1.0,-2.0,-2.0,9.0,-2.0,-1.0,-4.0,-2.0,12.0,12.0,4.0,5.0,-1.0,21.0,R101,-9.0,0.0,-1.0,-11.0,-10.0,1009.0,1.3203002,1.0846632,0.83362854,0.7235645,0.28769568,4.5934114,5.0325885,1.2623016,3.603847,13.736345,8.120132,6.5721,27.299656,16.54118,22.069576,15.573955,128.65495,25.0,3.0,4.0,2.0,26.0,64.0,38.0,29.0,79.0,183.0,107.0,125.0,239.0,241.0,234.0,268.0,1667.0
6.453,L101,340.0,-25.0,-16.0,40.0,95.0,1337.0,0.14972906,0.91916835,0.8915324,0.35614976,-0.8445332,0.7159244,3.2333996,0.32253042,1.8600168,0.27855557,1.1570392,0.06630566,0.86577916,-0.010825335,-0.38901776,0.7764276,10.348182,-2.0,-2.0,-4.0,2.0,0.0,-1.0,13.0,-2.0,1.0,-3.0,-1.0,8.0,12.0,1.0,3.0,1.0,26.0,R101,-3.0,0.0,-1.0,-16.0,3.0,998.0,1.4885397,1.4448645,0.83362854,0.9256469,0.017956518,5.151636,5.3375974,1.9711249,4.5762997,14.863853,9.234837,6.840878,25.583408,16.138128,18.88789,12.236751,125.53303,27.0,7.0,4.0,8.0,23.0,72.0,48.0,44.0,93.0,196.0,120.0,129.0,229.0,237.0,207.0,232.0,1676.0
6.492,L101,363.0,-18.0,6.0,-59.0,97.0,1852.0,0.14972906,1.0623085,0.8915324,-0.016990552,-0.90856284,0.7159244,3.2044446,0.43469995,2.1731606,0.3179901,1.100041,0.06630566,1.1945887,-0.010825335,-0.18184212,0.95922124,11.151726,-2.0,1.0,-4.0,-2.0,-1.0,-1.0,12.0,3.0,-3.0,-2.0,1.0,8.0,17.0,1.0,5.0,5.0,38.0,R101,0.0,0.0,-1.0,-17.0,5.0,995.0,0.4348344,1.3574727,0.7897148,0.7235645,0.5395253,6.0726457,5.5620375,1.8688798,5.2405643,15.135519,9.573513,7.943019,20.923655,13.920306,15.6641865,9.91442,115.66386,15.0,6.0,8.0,2.0,29.0,85.0,55.0,42.0,102.0,199.0,124.0,144.0,200.0,214.0,178.0,197.0,1600.0
6.596,L101,283.0,-7.0,23.0,427.0,-2047.0,2595.0,0.08343187,1.2133504,0.91130126,-0.11327149,-0.8445332,0.9159696,3.2044446,0.45960155,1.9321578,0.3590551,1.1570392,0.06630566,0.86577916,-0.010825335,-0.28503552,0.91290903,10.827681,-4.0,4.0,-3.0,-3.0,0.0,2.0,12.0,4.0,0.0,-1.0,-1.0,8.0,12.0,1.0,4.0,4.0,39.0,R101,-5.0,6.0,-3.0,-28.0,6.0,998.0,3.75372,6.6323757,1.5836129,1.340312,1.9405549,8.512946,6.833991,2.5660594,7.1101055,15.692009,14.503189,13.363855,5.053255,2.5959473,3.2125845,4.354865,99.049385,61.0,77.0,48.0,19.0,51.0,118.0,90.0,55.0,126.0,205.0,185.0,201.0,69.0,53.0,38.0,46.0,1442.0
6.612,L101,174.0,-84.0,79.0,337.0,-3567.0,1304.0,0.18552329,1.1621382,0.9321551,-0.016990552,-0.54407275,0.78288835,3.0902352,0.38733146,1.9321578,0.4459035,1.0555149,0.3024515,0.8032392,-0.07380916,0.022221994,0.6875268,11.154414,-1.0,3.0,-2.0,-2.0,5.0,0.0,8.0,1.0,0.0,1.0,3.0,12.0,11.0,0.0,7.0,-1.0,45.0,R101,-6.0,7.0,-3.0,-35.0,2.0,1006.0,3.75372,6.2847457,1.5037286,1.3003229,2.4678545,9.844592,7.420798,4.2381916,7.755579,14.863853,15.218957,14.6938925,2.3064318,1.6069535,2.2393506,2.7263794,98.22536,61.0,73.0,46.0,18.0,63.0,135.0,104.0,83.0,134.0,196.0,194.0,213.0,37.0,31.0,25.0,29.0,1442.0
6.664,L101,-27.0,-20.0,21.0,-680.0,-4097.0,837.0,0.14972906,0.91916835,0.9321551,0.07808286,-0.90856284,0.7159244,3.1470196,0.43469995,2.0083463,0.40170717,1.037792,-0.05480285,0.68147284,-0.20245335,-0.07942656,0.7764276,10.037278,-2.0,-2.0,-2.0,-1.0,-1.0,-1.0,10.0,3.0,-1.0,0.0,4.0,6.0,9.0,-2.0,6.0,1.0,27.0,R101,-27.0,-8.0,-2.0,-40.0,-9.0,1030.0,4.377255,8.147481,3.080184,2.8963847,2.7995899,11.920632,11.469733,9.047753,5.3158774,9.561497,13.078936,11.268289,0.22680476,0.7872999,0.65822107,0.09050758,94.72644,75.0,93.0,78.0,52.0,72.0,160.0,178.0,159.0,103.0,125.0,167.0,181.0,8.0,10.0,6.0,10.0,1477.0
6.701,L101,-271.0,174.0,-63.0,-137.0,-1933.0,487.0,0.08343187,0.87324756,0.91130126,-0.016990552,-0.54407275,0.7159244,3.1470196,0.2836273,2.0886557,1.1427956,1.0762466,0.41770005,3.8581483,1.1897804,7.3677397,5.9984474,28.593002,-4.0,-3.0,-3.0,-2.0,5.0,-1.0,10.0,-4.0,-2.0,14.0,2.0,14.0,49.0,23.0,100.0,90.0,288.0,R101,-117.0,0.0,-5.0,-37.0,-90.0,1219.0,7.946336,17.717182,8.499882,10.143691,3.7859833,22.797882,31.187351,28.026217,1.4330477,2.739519,1.6850114,0.46275258,0.099798664,0.823661,0.18585505,-0.7789142,136.75523,165.0,171.0,162.0,156.0,102.0,265.0,348.0,345.0,35.0,26.0,25.0,11.0,6.0,11.0,1.0,5.0,1834.0
6.717,L101,-189.0,171.0,-96.0,-564.0,1296.0,1632.0,0.053066228,0.87324756,0.8915324,0.07808286,-0.78185743,0.7159244,3.0062442,0.45960155,1.7918508,3.386922,0.9935302,0.3024515,16.223639,5.0957246,30.919994,36.706146,100.716095,-5.0,-3.0,-4.0,-1.0,1.0,-1.0,5.0,4.0,2.0,45.0,11.0,12.0,148.0,112.0,352.0,370.0,1048.0,R101,-153.0,-6.0,-7.0,-74.0,-125.0,1362.0,8.398783,19.8826,8.636799,10.395411,3.229716,18.823175,27.400518,32.540565,1.2405494,0.75618774,1.0876157,0.10285662,1.0353336,1.0473517,0.28283086,-1.5344609,133.32587,172.0,187.0,164.0,159.0,85.0,231.0,326.0,370.0,24.0,8.0,10.0,7.0,20.0,17.0,2.0,1.0,1783.0
6.754,L101,-83.0,77.0,0.0,-90.0,8.0,2395.0,0.14972906,0.91916835,0.87286675,-0.016990552,-0.07636962,0.8495664,2.9510303,0.32253042,1.9708807,6.7180758,4.6378765,3.911884,28.858387,13.277396,27.71918,29.93224,122.99745,-2.0,-2.0,-5.0,-2.0,14.0,1.0,3.0,-2.0,50.0,86.0,74.0,82.0,226.0,222.0,330.0,331.0,1406.0,R101,-265.0,-24.0,-24.0,-142.0,-173.0,1537.0,9.422184,21.77441,8.499882,11.599609,1.7877057,11.748797,19.137129,27.52713,1.227121,0.24858661,0.93664944,0.46275258,0.16301422,0.8971685,0.08753522,-1.7320627,113.78762,186.0,201.0,162.0,173.0,48.0,158.0,265.0,342.0,22.0,4.0,2.0,11.0,7.0,13.0,0.0,0.0,1594.0
6.769,L101,-7.0,0.0,-2.0,-23.0,-44.0,1045.0,0.7282036,0.91916835,0.9321551,-0.016990552,0.5442065,2.5794792,3.3806357,1.2311249,5.699836,7.981592,7.5935025,6.645191,29.567808,14.765762,22.213114,23.572855,128.33765,11.0,-2.0,-2.0,-2.0,29.0,28.0,18.0,27.0,100.0,102.0,105.0,127.0,230.0,237.0,285.0,286.0,1579.0,R101,-413.0,-58.0,-48.0,-215.0,-404.0,2015.0,7.1566734,16.23876,8.158911,10.9055195,1.389375,8.898602,14.513461,16.788427,1.2737663,-0.4254652,0.9480702,1.1028469,0.22680476,0.751199,-0.11332944,-1.1498079,86.6638,151.0,160.0,157.0,165.0,41.0,123.0,218.0,259.0,27.0,-1.0,3.0,19.0,8.0,9.0,-2.0,3.0,1340.0
6.822,L101,0.0,-2.0,0.0,0.0,2.0,1004.0,1.001808,1.1117884,0.95407593,0.1719577,0.820021,4.0312257,3.9462256,2.3554626,5.871891,9.502629,10.315682,7.069852,30.103975,15.279376,16.68285,17.2195,126.43831,16.0,2.0,-1.0,0.0,37.0,51.0,36.0,51.0,102.0,122.0,133.0,133.0,233.0,242.0,228.0,229.0,1614.0,R101,-386.0,42.0,-86.0,-651.0,319.0,3897.0,1.4048426,3.0147302,1.1258825,1.3807492,-2.320026,2.6099975,5.244203,1.8185468,1.3779742,0.5057741,0.9206464,0.0083313575,0.29116505,1.0094075,0.08753522,-0.9626641,17.517096,26.0,28.0,35.0,20.0,3.0,35.0,45.0,41.0,7.0,6.0,0.0,6.0,9.0,16.0,0.0,4.0,281.0
6.861,L101,-3.0,-1.0,-1.0,-5.0,23.0,1004.0,0.62537456,1.1621382,1.0010482,0.7963677,1.9649955,5.548082,5.304589,3.7531648,7.4327326,10.533658,11.54804,9.013231,23.402147,12.704748,10.184785,9.458553,114.433655,9.0,3.0,1.0,7.0,74.0,74.0,73.0,76.0,120.0,136.0,146.0,158.0,194.0,216.0,142.0,138.0,1567.0,R101,-122.0,-36.0,18.0,-742.0,3364.0,694.0,-0.58810455,1.1774578,0.77517587,0.788982,-2.7640522,1.668151,4.5535374,0.6740619,1.405584,-0.15037605,0.9206464,-0.1864424,0.22680476,1.0473517,-0.0121766245,-0.9626641,8.573936,4.0,4.0,14.0,4.0,0.0,21.0,21.0,12.0,6.0,1.0,0.0,4.0,8.0,17.0,-1.0,4.0,119.0
6.878,L101,-2.0,-1.0,-1.0,2.0,7.0,1005.0,1.001808,1.7712145,1.5908005,1.2881181,2.50152,7.4804616,6.2106338,6.1190004,7.2591105,9.873541,11.735175,8.847275,15.783008,6.8899755,7.098086,6.2047305,101.65445,16.0,14.0,19.0,13.0,89.0,101.0,94.0,114.0,118.0,127.0,148.0,156.0,145.0,143.0,96.0,93.0,1486.0,R101,212.0,-7.0,115.0,124.0,1240.0,1228.0,-0.774036,0.9898924,0.77827114,0.75602806,-3.0753064,0.9995556,4.318669,0.5802484,1.3779742,-0.28699034,0.9206464,-0.5999362,0.099798664,0.7872999,0.3785097,-0.5985127,6.652112,2.0,2.0,10.0,3.0,-2.0,11.0,12.0,8.0,7.0,0.0,0.0,0.0,6.0,10.0,3.0,6.0,78.0
6.927,L101,-2.0,-3.0,-1.0,-1.0,9.0,1005.0,1.9181622,2.7519214,2.170734,1.7427802,2.3496442,9.043573,6.302621,6.3778677,6.911618,10.021013,10.315682,8.930024,8.987327,4.263411,4.934934,4.4670153,91.488335,31.0,29.0,32.0,19.0,85.0,121.0,96.0,118.0,114.0,129.0,133.0,157.0,95.0,95.0,65.0,67.0,1386.0,R101,275.0,-3.0,-51.0,231.0,505.0,688.0,-1.1408108,0.5892044,0.8080829,0.75602806,-3.0753064,0.8661904,4.193462,0.62470526,1.3092324,-0.28699034,0.9206464,-0.28676605,-0.20746252,0.9343169,-0.11332944,-0.7789142,5.1122894,-2.0,-2.0,6.0,3.0,-2.0,9.0,7.0,10.0,10.0,0.0,0.0,3.0,1.0,14.0,-2.0,5.0,60.0
6.968,L101,-4.0,-2.0,0.0,2.0,5.0,1003.0,2.6975994,3.7253573,3.015892,2.2306676,2.7018344,9.619232,7.704911,7.8902287,7.2591105,10.24135,12.200048,9.265597,4.250244,2.7723975,3.3357117,2.4613025,91.37148,43.0,42.0,48.0,26.0,94.0,128.0,124.0,141.0,118.0,132.0,153.0,161.0,53.0,60.0,44.0,34.0,1401.0,R101,343.0,12.0,-37.0,52.0,483.0,1028.0,-1.2309331,0.692807,0.83362854,0.75602806,-2.9181287,0.7329366,4.1444016,0.62470526,1.4356092,-0.28699034,0.91407496,-0.38909772,-0.20746252,0.9343169,0.4729377,-1.1498079,5.359026,-3.0,-1.0,4.0,3.0,-1.0,7.0,5.0,10.0,5.0,0.0,-2.0,2.0,1.0,14.0,4.0,3.0,51.0
7.019,L101,-6.0,-5.0,2.0,6.0,0.0,1010.0,4.351142,6.997482,4.9935107,2.5540063,3.3325207,14.869004,12.833565,12.816528,7.1722584,9.577079,13.298861,13.118786,0.8032392,0.9433062,0.5193339,1.0530491,109.23367,69.0,79.0,80.0,31.0,108.0,185.0,200.0,211.0,117.0,123.0,165.0,202.0,11.0,18.0,12.0,7.0,1618.0,R101,358.0,37.0,11.0,-189.0,233.0,1293.0,-1.2309331,0.79405826,0.8080829,0.66011906,-3.0753064,0.79954964,4.1200867,0.6487849,1.2223802,-0.28699034,0.9206464,-0.38909772,-0.024885884,0.9343169,-0.0121766245,-0.5985127,5.290123,-3.0,0.0,6.0,0.0,-2.0,8.0,4.0,11.0,18.0,0.0,0.0,2.0,4.0,14.0,-1.0,6.0,67.0
7.139,L101,-19.0,-2.0,1.0,4.0,-7.0,1016.0,5.0049043,9.003039,5.5941386,3.2030063,4.5602245,17.807985,16.864164,15.151656,6.911618,8.444658,13.389406,11.817183,0.45152625,0.62920773,0.22326112,0.91290903,119.968895,80.0,99.0,89.0,42.0,130.0,213.0,243.0,240.0,114.0,108.0,166.0,189.0,5.0,12.0,9.0,4.0,1743.0,R101,299.0,94.0,-26.0,-162.0,-2371.0,2646.0,-1.2309331,0.79405826,0.83362854,0.66011906,-2.9181287,0.5997927,4.0479956,0.49203193,1.405584,-0.15037605,0.9144459,0.0083313575,0.037163474,0.8971685,0.28283086,-0.9626641,5.711048,-3.0,0.0,4.0,0.0,-1.0,5.0,1.0,3.0,6.0,1.0,-3.0,6.0,5.0,13.0,2.0,4.0,43.0
7.280,L101,-275.0,-7.0,21.0,41.0,-300.0,1515.0,7.7279577,14.94271,8.674929,10.493872,2.46288,19.936506,33.10981,26.974577,1.8171399,1.2045084,0.99799067,0.3024515,0.74179983,0.3496027,-0.28503552,0.73176587,130.18347,131.0,153.0,133.0,172.0,88.0,232.0,354.0,343.0,47.0,15.0,12.0,12.0,10.0,7.0,4.0,0.0,1713.0,R101,198.0,48.0,-95.0,695.0,-3285.0,1621.0,-1.2309331,1.0846632,0.8666115,0.85634995,-2.1779497,0.3338313,4.0242467,0.523243,1.2908818,-0.28699034,0.9206464,-0.088089146,-0.024885884,0.8971685,0.92786545,-0.5985127,7.318147,-3.0,3.0,2.0,6.0,4.0,1.0,0.0,5.0,11.0,0.0,0.0,5.0,4.0,13.0,9.0,6.0,66.0
7.544,L101,256.0,-7.0,46.0,17.0,561.0,646.0,0.14972906,0.91916835,0.9321551,0.35614976,-0.90856284,0.78288835,3.4406962,0.45960155,1.9321578,0.3179901,1.1570392,-0.11616254,0.74179983,0.112566754,-0.18184212,0.91290903,11.008284,-2.0,-2.0,-2.0,2.0,-1.0,0.0,20.0,4.0,0.0,-2.0,-1.0,5.0,10.0,3.0,5.0,4.0,43.0,R101,-89.0,1.0,-44.0,773.0,-4178.0,2149.0,-1.1408108,0.5892044,0.83362854,0.7235645,-2.4650414,0.66635096,4.0718846,0.62470526,1.3527391,0.37804067,0.961709,0.46275258,0.55420226,1.085563,0.8390317,0.09050758,9.628033,-2.0,-2.0,4.0,2.0,2.0,6.0,2.0,10.0,8.0,5.0,4.0,11.0,13.0,18.0,8.0,10.0,99.0
7.560,L101,321.0,-17.0,1.0,-33.0,510.0,956.0,0.14972906,0.87324756,0.8915324,0.7105949,-0.48770285,0.78288835,3.2625175,0.43469995,2.0083463,0.3179901,1.1903547,-0.05480285,0.74179983,-0.010825335,-0.18184212,0.73176587,11.360294,-2.0,-3.0,-4.0,6.0,6.0,0.0,14.0,3.0,-1.0,-2.0,-2.0,6.0,10.0,1.0,5.0,0.0,37.0,R101,-426.0,-136.0,99.0,729.0,363.0,2298.0,1.4048426,1.0846632,0.8080829,0.788982,-1.0247353,0.66635096,4.0718846,0.47855392,1.2207155,6.955314,2.0749316,1.247966,23.11514,11.182843,32.52435,25.350224,111.9501,26.0,3.0,6.0,4.0,13.0,6.0,2.0,2.0,19.0,82.0,32.0,21.0,214.0,183.0,309.0,342.0,1264.0
7.647,L101,381.0,-49.0,4.0,103.0,-123.0,2188.0,0.14972906,0.91916835,0.9321551,0.6236984,-0.90856284,0.7159244,3.1756516,0.36488646,2.0083463,0.27855557,1.1570392,-0.17807701,0.92940825,0.0512933,-0.07942656,0.73176587,10.871555,-2.0,-2.0,-2.0,5.0,-1.0,-1.0,11.0,0.0,-1.0,-3.0,-1.0,4.0,13.0,2.0,6.0,0.0,28.0,R101,-9.0,-3.0,0.0,-23.0,6.0,1011.0,0.7071733,1.4448645,0.83362854,0.82242346,-0.3714619,4.109477,4.7450085,0.81747633,3.2795475,12.843334,6.8162236,5.8272834,29.43533,17.46779,26.023008,17.841335,132.64244,18.0,7.0,4.0,5.0,19.0,57.0,28.0,17.0,74.0,172.0,92.0,113.0,251.0,250.0,265.0,288.0,1660.0
7.806,L101,16.0,-62.0,5.0,-501.0,-4039.0,763.0,0.08343187,0.9659907,0.9321551,0.07808286,-0.3784427,0.7159244,3.0902352,0.62537205,1.9321578,0.5387615,1.0762466,-0.49644136,0.68147284,0.17301486,-0.28503552,0.73176587,10.464691,-4.0,-1.0,-2.0,-1.0,8.0,-1.0,8.0,10.0,0.0,3.0,2.0,-1.0,9.0,4.0,4.0,0.0,38.0,R101,-3.0,2.0,-3.0,-28.0,7.0,997.0,3.3238995,5.3130264,1.5037286,1.1071887,2.0372145,8.589698,7.0795727,4.2381916,4.432389,13.081509,12.999594,14.6938925,4.147883,3.2443125,3.7237346,4.354865,93.8707,53.0,61.0,46.0,13.0,53.0,119.0,96.0,83.0,91.0,175.0,166.0,213.0,59.0,66.0,45.0,46.0,1385.0
7.823,L101,-91.0,7.0,-18.0,-141.0,-3129.0,947.0,0.053066228,0.87324756,0.91130126,-0.016990552,-0.2228055,0.9159696,3.2044446,0.43469995,1.7918508,0.90645456,1.0111572,0.0060154353,1.1945887,0.23265727,3.6522727,2.3488076,17.296738,-5.0,-3.0,-3.0,-2.0,11.0,2.0,12.0,3.0,2.0,10.0,6.0,7.0,17.0,5.0,48.0,32.0,142.0,R101,-6.0,4.0,-4.0,-29.0,11.0,1008.0,3.8521726,6.2847457,1.886476,1.4216319,2.4281967,9.924802,8.249897,5.491617,4.7948303,13.081509,14.02842,14.581356,2.1497214,2.2665539,2.7692547,3.661855,96.87304,63.0,73.0,55.0,21.0,62.0,136.0,122.0,103.0,96.0,175.0,179.0,212.0,35.0,46.0,32.0,38.0,1448.0
7.860,L101,-166.0,114.0,-61.0,-75.0,1022.0,997.0,0.053066228,0.8282364,0.8915324,-0.11327149,-0.90856284,0.58109325,3.0902352,0.38733146,1.9321578,1.4608864,1.0762466,0.18535511,6.944909,2.6105537,23.219362,20.588144,62.82727,-5.0,-4.0,-4.0,-3.0,-1.0,-3.0,8.0,1.0,0.0,19.0,2.0,10.0,78.0,56.0,294.0,261.0,709.0,R101,-13.0,7.0,-3.0,-37.0,5.0,1029.0,3.8033748,6.5443125,2.026358,1.7200705,2.5831103,10.988362,10.439177,7.1344686,5.16553,11.351776,14.265676,14.469107,0.62133616,1.6069535,1.3579235,1.7356439,95.81319,62.0,76.0,58.0,28.0,66.0,149.0,162.0,129.0,101.0,152.0,182.0,211.0,14.0,31.0,14.0,21.0,1456.0
7.872,L101,-405.0,240.0,3.0,-946.0,-150.0,3564.0,0.115675956,0.7841428,0.87286675,0.1719577,-0.2228055,0.64866316,2.9785597,0.2836273,1.1748728,5.7471247,1.9334912,1.9436258,25.741947,9.721544,34.90265,39.06742,125.865364,-3.0,-5.0,-5.0,0.0,11.0,-2.0,4.0,-4.0,19.0,74.0,39.0,43.0,208.0,182.0,376.0,382.0,1319.0,R101,-32.0,-8.0,-2.0,-48.0,-3.0,1033.0,4.493365,7.4600554,2.2713938,2.8963847,2.9023707,12.618812,13.684111,10.911374,3.9411962,9.312569,11.961432,11.571308,-0.024885884,0.8971685,1.2736645,-0.07694865,96.09337,78.0,86.0,63.0,52.0,75.0,168.0,208.0,187.0,84.0,121.0,153.0,184.0,4.0,13.0,13.0,9.0,1498.0
7.911,L101,-7.0,2.0,-1.0,-63.0,0.0,1110.0,0.26207143,0.8282364,0.91130126,0.6236984,0.01652525,1.179053,2.8424432,0.48530015,3.7949698,7.4337964,5.5644565,4.7440224,29.92486,13.764627,26.646639,28.69697,127.71896,1.0,-4.0,-3.0,5.0,16.0,6.0,-1.0,5.0,77.0,95.0,84.0,97.0,232.0,227.0,322.0,323.0,1482.0,R101,-314.0,-44.0,-29.0,-171.0,-171.0,1763.0,6.592606,17.043356,7.3475733,12.309898,0.84932375,10.247873,15.946232,22.861523,1.2260028,0.11738434,0.9274927,0.87444043,0.22680476,1.16279,0.3785097,-1.7320627,96.37976,139.0,166.0,145.0,181.0,33.0,140.0,234.0,311.0,17.0,3.0,1.0,16.0,8.0,20.0,3.0,0.0,1417.0
7.925,L101,-3.0,-3.0,0.0,-19.0,20.0,1007.0,0.5269141,1.0623085,0.8915324,0.53566635,0.43255174,2.5167255,3.2625175,0.7506897,5.871891,9.35331,9.156676,6.438724,32.28441,15.9069605,17.832829,19.16438,125.98808,7.0,1.0,-4.0,4.0,26.0,27.0,14.0,14.0,102.0,120.0,121.0,124.0,245.0,248.0,241.0,248.0,1538.0,R101,-463.0,-50.0,-54.0,-528.0,-1011.0,2687.0,4.296813,11.011202,5.622864,7.748783,0.017956518,7.755321,11.673999,12.492946,1.239265,0.24858661,0.97752035,1.1028469,-0.024885884,0.7872999,-0.32015872,-1.7320627,62.898293,73.0,119.0,119.0,126.0,23.0,108.0,181.0,209.0,15.0,4.0,5.0,19.0,4.0,10.0,-4.0,0.0,1011.0
8.033,L101,-6.0,0.0,-1.0,-7.0,26.0,1004.0,0.6762685,1.1117884,0.95407593,0.4464872,1.4050676,4.942918,4.427354,3.1730397,7.519489,10.751922,13.117317,9.013231,28.155167,14.061268,12.065785,12.210785,124.03196,10.0,2.0,-1.0,3.0,56.0,65.0,50.0,66.0,121.0,139.0,163.0,158.0,222.0,230.0,169.0,173.0,1626.0,R101,182.0,-60.0,109.0,-28.0,786.0,512.0,-1.0499684,0.8930551,0.783143,0.85634995,-3.0753064,0.93285894,4.2681437,0.62470526,1.3527391,-0.15037605,0.91407496,0.19552408,0.037163474,0.8971685,0.28283086,-0.5985127,7.1635933,-1.0,1.0,9.0,6.0,-2.0,10.0,10.0,10.0,8.0,1.0,-2.0,8.0,5.0,13.0,2.0,6.0,84.0
8.068,L101,-1.0,-1.0,0.0,-12.0,15.0,1004.0,1.4158595,1.8923761,1.4736259,1.2881181,2.3127623,7.9369373,6.074574,5.7974257,6.651017,10.460728,13.298861,9.782658,13.492738,6.7623324,6.8949394,5.9984474,101.5334,23.0,16.0,16.0,13.0,84.0,107.0,91.0,109.0,111.0,135.0,165.0,167.0,129.0,141.0,93.0,90.0,1490.0,R101,191.0,-4.0,-1.0,-211.0,459.0,254.0,-0.95849884,0.8930551,0.8080829,0.75602806,-2.7640522,0.9995556,4.2681437,0.62470526,1.3298384,-0.15037605,0.9206464,-0.1864424,-0.20746252,0.7872999,0.65822107,-1.3403915,6.438354,0.0,1.0,6.0,3.0,0.0,11.0,10.0,10.0,9.0,1.0,0.0,4.0,1.0,10.0,6.0,2.0,74.0
8.082,L101,-2.0,-2.0,-1.0,-12.0,16.0,1002.0,1.9823542,2.3401487,2.2692344,1.6694453,2.871112,9.124889,6.8767486,7.2279506,6.7378664,9.947338,11.54804,9.436127,7.4114075,4.263411,4.3428497,3.7700267,91.81895,32.0,23.0,34.0,18.0,98.0,122.0,108.0,131.0,112.0,128.0,146.0,163.0,82.0,95.0,57.0,56.0,1405.0,R101,237.0,23.0,-60.0,38.0,656.0,545.0,-1.1408108,0.8930551,0.8199424,0.7235645,-2.9181287,0.7329366,4.1444016,0.5802484,1.2908818,-0.5658293,0.9206464,0.95205396,-0.14720464,0.8602836,0.7491641,-0.5985127,7.2966924,-2.0,1.0,5.0,2.0,-1.0,7.0,5.0,8.0,11.0,-2.0,0.0,17.0,2.0,12.0,7.0,6.0,78.0
8.123,L101,-3.0,-1.0,0.0,-12.0,13.0,1002.0,2.3712084,3.6467667,3.015892,1.8866427,2.46288,9.8705635,8.261552,9.305559,6.651017,9.577079,11.921632,11.146512,3.8581483,2.7319348,3.0939713,2.3488076,92.15016,38.0,41.0,48.0,21.0,88.0,131.0,134.0,162.0,111.0,123.0,150.0,182.0,49.0,59.0,41.0,32.0,1410.0,R101,318.0,22.0,-21.0,54.0,593.0,937.0,-1.1408108,0.79405826,0.8080829,0.82242346,-2.9181287,0.5332616,4.1688595,0.6018505,1.2260028,-0.5658293,0.91615796,0.19552408,-0.26711157,0.7153573,0.28283086,-0.5985127,5.5740156,-2.0,0.0,6.0,5.0,-1.0,4.0,6.0,9.0,17.0,-2.0,-1.0,8.0,0.0,8.0,2.0,6.0,65.0
8.173,L101,-3.0,-3.0,2.0,-6.0,8.0,1007.0,3.9813719,6.8047996,5.392371,2.6780214,2.914748,13.681261,13.253855,13.8308,7.3459377,9.502629,13.026315,13.743485,0.86577916,0.99363226,0.8090736,1.0530491,109.87712,63.0,77.0,86.0,33.0,99.0,173.0,205.0,224.0,119.0,122.0,162.0,208.0,12.0,19.0,15.0,7.0,1624.0,R101,356.0,44.0,-5.0,-110.0,374.0,1253.0,-1.2309331,0.692807,0.83362854,0.788982,-2.9181287,0.5997927,4.0479956,0.62470526,1.2316191,-0.5658293,0.9206464,-0.1864424,-0.024885884,0.7872999,0.5661601,-0.7789142,5.388503,-3.0,-1.0,4.0,4.0,-1.0,5.0,1.0,10.0,16.0,-2.0,0.0,4.0,4.0,10.0,5.0,5.0,61.0
8.188,L101,-20.0,-6.0,2.0,-10.0,3.0,1037.0,4.770863,7.5846205,5.72944,3.579716,3.4317286,16.204435,17.837973,19.037804,6.651017,7.6695533,12.384816,12.913877,0.50728446,0.5194591,0.123114325,1.1005566,120.04627,76.0,85.0,91.0,49.0,110.0,198.0,252.0,281.0,111.0,98.0,155.0,200.0,6.0,10.0,8.0,8.0,1738.0,R101,365.0,57.0,21.0,-166.0,216.0,1707.0,-0.95849884,0.692807,0.84917384,0.75602806,-2.4650414,0.93285894,4.1200867,0.62470526,1.3092324,-0.4254652,0.9274927,-0.5999362,-0.08634382,0.7153573,0.08753522,-0.5985127,5.8814797,0.0,-1.0,3.0,3.0,2.0,10.0,4.0,10.0,10.0,-1.0,1.0,0.0,3.0,8.0,0.0,6.0,58.0
8.240,L101,-35.0,15.0,0.0,-4.0,-13.0,1027.0,5.2347846,9.840578,6.483519,3.8354647,4.1950126,17.373796,24.68616,24.489923,6.477418,5.8286023,10.602438,9.181018,0.50728446,0.29151344,-0.59939283,0.86700326,129.29512,84.0,107.0,102.0,54.0,124.0,209.0,305.0,326.0,109.0,75.0,136.0,160.0,6.0,6.0,1.0,3.0,1807.0,R101,383.0,71.0,65.0,-377.0,-58.0,2471.0,-0.95849884,1.0846632,0.8199424,0.7235645,-2.7640522,0.5332616,4.0718846,0.54091585,1.3298384,-0.8523408,0.9206464,-0.1864424,-0.08634382,0.8602836,1.1885669,-0.5985127,6.6273775,0.0,3.0,5.0,2.0,0.0,4.0,2.0,6.0,9.0,-4.0,0.0,4.0,3.0,12.0,12.0,6.0,64.0
8.278,L101,-61.0,8.0,3.0,-15.0,-37.0,1132.0,6.487105,12.561225,7.3924227,4.7446065,4.374713,22.542675,33.30698,32.80275,4.601195,4.60182,8.376242,5.713998,0.19057897,0.5194591,-0.38901776,0.7764276,148.60318,107.0,132.0,115.0,73.0,127.0,254.0,355.0,377.0,87.0,60.0,113.0,113.0,0.0,10.0,3.0,1.0,1927.0,R101,386.0,73.0,85.0,-420.0,-1146.0,3272.0,-1.2309331,0.79405826,0.8199424,0.66011906,-2.7640522,0.2010139,4.095915,0.5069384,1.3779742,-0.28699034,0.9206464,-0.28676605,0.037163474,0.823661,1.1885669,-1.1498079,5.707449,-3.0,0.0,5.0,0.0,0.0,-1.0,3.0,4.0,7.0,0.0,0.0,3.0,5.0,11.0,12.0,3.0,49.0
8.344,L101,-68.0,3.0,3.0,-23.0,-63.0,1122.0,7.6245008,14.368993,8.030576,5.583004,4.0210843,26.367916,47.96755,41.888115,3.4868321,2.8366272,4.6378765,3.4921393,0.39694083,0.57467,-0.38901776,0.7764276,171.66425,129.0,148.0,124.0,91.0,121.0,284.0,417.0,419.0,73.0,38.0,74.0,74.0,4.0,11.0,3.0,1.0,2011.0,R101,-276.0,-68.0,11.0,694.0,-4439.0,1038.0,-0.95849884,0.79405826,0.8199424,0.7235645,-2.0387714,1.1998174,4.1200867,0.5802484,1.4680909,0.63181406,0.9480702,0.54836124,0.6890105,0.9717296,1.2736645,2.2510602,14.022248,0.0,0.0,5.0,2.0,5.0,14.0,4.0,8.0,4.0,7.0,3.0,12.0,15.0,15.0,13.0,25.0,132.0
8.385,L101,-125.0,-9.0,-1.0,-54.0,-145.0,1202.0,8.251487,15.520235,9.470306,7.935485,3.6373787,32.221767,63.755787,53.255558,1.2685676,1.5943552,1.2706093,0.69842094,0.5642031,0.112566754,-0.28503552,0.7764276,200.04814,141.0,158.0,144.0,135.0,114.0,325.0,466.0,460.0,32.0,21.0,25.0,19.0,7.0,3.0,4.0,1.0,2055.0,R101,-194.0,-17.0,68.0,-91.0,-402.0,656.0,0.6169291,0.9898924,0.7897148,0.7235645,-2.0387714,0.7329366,4.193462,0.49203193,1.3092324,2.837085,1.0375441,0.0083313575,4.868853,2.2206228,12.121296,8.806548,39.709274,17.0,2.0,8.0,2.0,5.0,7.0,7.0,3.0,10.0,27.0,8.0,6.0,67.0,45.0,144.0,173.0,531.0
8.698,L101,309.0,-6.0,-21.0,-37.0,467.0,863.0,0.14972906,0.9659907,0.91130126,0.8810291,-0.7205044,0.78288835,3.1756516,0.45960155,1.9321578,0.27855557,1.0762466,0.06630566,0.68147284,-0.07380916,-0.38901776,0.64371467,10.821313,-2.0,-1.0,-3.0,8.0,2.0,0.0,11.0,4.0,0.0,-3.0,2.0,8.0,9.0,0.0,3.0,-2.0,36.0,R101,-459.0,-105.0,49.0,461.0,30.0,3096.0,1.1487815,1.2683654,0.7980176,0.89075863,-0.90978354,0.93285894,4.0479956,0.5069384,1.2316191,7.1392016,2.519852,2.4983895,22.006046,11.266851,29.111372,23.512785,107.970055,23.0,5.0,7.0,7.0,14.0,10.0,1.0,4.0,16.0,85.0,39.0,42.0,207.0,184.0,287.0,330.0,1261.0
8.803,L101,362.0,-25.0,-25.0,53.0,-79.0,2052.0,0.115675956,0.9659907,0.91130126,0.26464337,-0.8445332,0.64866316,3.0902352,0.38733146,2.0886557,0.3179901,1.1269534,-0.30362397,0.5642031,0.29151344,-0.28503552,0.7764276,10.116392,-3.0,-1.0,-3.0,1.0,0.0,-2.0,8.0,1.0,-2.0,-2.0,0.0,2.0,7.0,6.0,4.0,1.0,17.0,R101,-39.0,-22.0,7.0,-109.0,-102.0,1347.0,0.6169291,0.48315126,0.83362854,0.85634995,-0.6872919,2.3401043,4.1200867,0.75680923,2.0108526,10.529,5.860081,5.220176,25.414919,15.839301,24.834,18.45291,117.48101,17.0,-3.0,4.0,6.0,16.0,31.0,4.0,15.0,51.0,140.0,81.0,102.0,228.0,234.0,256.0,293.0,1475.0
8.822,L101,351.0,-19.0,-10.0,145.0,-805.0,2644.0,0.08343187,0.91916835,0.91130126,0.26464337,-0.90856284,0.7159244,3.1756516,0.43469995,2.0886557,0.3179901,1.1269534,-0.30362397,0.86577916,0.112566754,-0.18184212,0.86700326,10.48974,-4.0,-2.0,-3.0,1.0,-1.0,-1.0,11.0,3.0,-2.0,-2.0,0.0,2.0,12.0,3.0,5.0,3.0,25.0,R101,-9.0,0.0,0.0,-26.0,13.0,1013.0,1.2349375,1.2683654,0.8199424,0.85634995,-0.17236343,3.9719021,4.9737105,1.1392486,3.153873,12.609083,7.077678,6.5065374,25.922087,17.052542,22.069576,14.648929,123.1324,24.0,5.0,5.0,6.0,21.0,55.0,36.0,26.0,72.0,169.0,95.0,124.0,231.0,246.0,234.0,259.0,1608.0
8.911,L101,312.0,1.0,19.0,222.0,-1658.0,2749.0,0.115675956,1.0623085,0.9321551,0.1719577,-0.48770285,0.64866316,3.2044446,0.41060627,2.0083463,0.3179901,1.1269534,-0.17807701,0.92940825,0.23265727,-0.28503552,0.86700326,11.077355,-3.0,1.0,-2.0,0.0,6.0,-2.0,12.0,2.0,-1.0,-2.0,0.0,4.0,13.0,5.0,4.0,3.0,40.0,R101,-4.0,0.0,-1.0,-32.0,7.0,998.0,0.7968263,1.3574727,0.783143,0.788982,0.109927386,4.941608,5.092163,1.719542,4.219389,15.411561,8.465171,7.1201916,25.079643,17.155836,17.420277,12.559581,123.02131,19.0,6.0,9.0,4.0,24.0,69.0,40.0,39.0,88.0,202.0,111.0,133.0,226.0,247.0,194.0,236.0,1647.0
8.925,L101,241.0,-44.0,94.0,720.0,-2590.0,1756.0,0.18552329,1.0623085,0.9321551,0.26464337,-0.66044307,0.64866316,3.2625175,0.43469995,2.0083463,0.40170717,1.0762466,-0.30362397,0.6222699,0.112566754,-0.18184212,0.82150817,10.687246,-1.0,1.0,-2.0,1.0,3.0,-2.0,14.0,3.0,-1.0,0.0,2.0,2.0,8.0,3.0,5.0,2.0,38.0,R101,-4.0,2.0,-3.0,-38.0,10.0,999.0,3.4920726,5.3130264,1.979106,1.4216319,2.175037,8.743767,8.298584,6.312498,3.2795475,12.686735,12.20234,14.6938925,3.710936,3.039741,3.2125845,4.4332585,94.99477,56.0,61.0,57.0,21.0,56.0,121.0,123.0,116.0,74.0,170.0,156.0,213.0,54.0,62.0,38.0,47.0,1425.0
9.071,L101,-6.0,2.0,-2.0,98.0,9.0,1017.0,0.14972906,0.8282364,0.9321551,0.7105949,0.14933562,2.0129592,3.1756516,0.5670702,4.1924767,6.396265,6.715843,6.037236,28.858387,13.277396,18.198534,18.32694,110.52881,-2.0,-4.0,-2.0,6.0,19.0,19.0,11.0,8.0,82.0,82.0,96.0,118.0,226.0,222.0,245.0,240.0,1366.0,R101,-24.0,-6.0,-3.0,-50.0,0.0,1025.0,4.6405706,7.555932,2.5297706,3.0590062,2.7995899,12.530571,13.684111,12.72003,2.8508651,8.3413725,11.314043,11.068734,0.16301422,1.0094075,0.28283086,0.254838,94.80469,82.0,87.0,68.0,55.0,72.0,167.0,208.0,212.0,67.0,105.0,145.0,179.0,7.0,16.0,2.0,11.0,1483.0
9.135,L101,-6.0,1.0,-2.0,-8.0,3.0,1010.0,0.3883432,0.91916835,1.0260649,1.5951537,0.685652,4.2240252,3.9132836,2.5663476,5.357635,8.5212555,10.123785,8.360395,27.631784,14.260799,14.30541,14.334417,118.21353,4.0,-2.0,2.0,17.0,33.0,54.0,35.0,55.0,96.0,109.0,131.0,150.0,219.0,232.0,199.0,198.0,1532.0,R101,-36.0,-20.0,-4.0,-42.0,-17.0,1035.0,4.9468446,8.978653,3.310909,4.920327,3.133092,14.729984,18.15005,18.34251,2.4567375,6.5816,8.465171,6.6383133,-0.024885884,0.9343169,0.7491641,-0.7789142,101.53388,91.0,101.0,82.0,86.0,82.0,191.0,256.0,274.0,60.0,76.0,111.0,126.0,4.0,14.0,7.0,5.0,1566.0
9.173,L101,-1.0,-2.0,0.0,-4.0,9.0,1003.0,1.1754899,1.538301,2.3699443,2.4270191,1.9982185,7.330609,5.765865,5.099025,7.3459377,10.314578,12.014606,9.782658,18.63147,9.322289,9.710771,8.488203,113.31498,19.0,10.0,36.0,29.0,75.0,99.0,84.0,98.0,119.0,133.0,151.0,167.0,164.0,177.0,135.0,125.0,1621.0,R101,-85.0,4.0,-1.0,-34.0,-67.0,1195.0,5.386974,11.24945,5.3625045,8.055127,3.2938569,22.549988,36.342934,31.585258,1.6475185,3.837927,2.794924,1.7152687,0.037163474,0.751199,0.3785097,-0.24757458,134.74104,105.0,121.0,115.0,130.0,87.0,263.0,374.0,365.0,42.0,38.0,43.0,28.0,5.0,9.0,3.0,8.0,1736.0
9.224,L101,-1.0,-2.0,0.0,-8.0,18.0,1005.0,1.9823542,2.5429127,2.4211004,2.858772,2.3869514,7.783615,6.074574,6.248263,7.1722584,10.679251,13.208165,11.4313135,12.2502985,6.0317235,7.3677397,5.793586,106.23288,32.0,26.0,37.0,36.0,86.0,105.0,91.0,116.0,117.0,138.0,164.0,185.0,120.0,129.0,100.0,87.0,1569.0,R101,-141.0,4.0,-5.0,-47.0,-102.0,1377.0,5.3249445,12.722669,5.622864,10.227351,3.133092,21.938282,33.86528,31.585258,1.2499111,1.4689251,1.6850114,0.46275258,0.48761344,0.9343169,0.4729377,-1.9332438,129.24794,103.0,133.0,119.0,157.0,82.0,258.0,362.0,365.0,25.0,14.0,25.0,11.0,12.0,14.0,4.0,-1.0,1683.0
9.239,L101,-3.0,-2.0,-2.0,-7.0,16.0,1003.0,2.8933523,4.6273603,3.6607985,3.2030063,2.240233,8.562076,7.4380827,7.425889,6.911618,10.314578,12.568917,12.309272,6.1507697,3.7268965,4.492637,3.040751,99.56624,46.0,53.0,59.0,42.0,82.0,115.0,119.0,134.0,114.0,133.0,157.0,194.0,71.0,83.0,59.0,44.0,1505.0,R101,-379.0,22.0,-44.0,-617.0,195.0,2986.0,-0.02758699,1.6148312,0.8416288,0.82242346,-2.7640522,2.4075131,4.915522,1.437056,1.2908818,-0.28699034,0.91407496,0.0083313575,0.16301422,1.360586,-0.0121766245,-0.07694865,12.6081085,10.0,9.0,22.0,5.0,0.0,32.0,34.0,33.0,11.0,0.0,-2.0,6.0,7.0,25.0,-1.0,9.0,200.0
9.330,L101,-7.0,-6.0,0.0,1.0,6.0,1013.0,4.4118876,9.106727,6.001802,4.4645696,3.0947585,13.10371,12.264614,11.48005,7.779467,10.314578,14.7316265,13.118786,0.86577916,0.57467,0.6166038,1.1484545,113.07807,70.0,100.0,95.0,67.0,103.0,167.0,193.0,193.0,124.0,133.0,181.0,202.0,12.0,11.0,13.0,9.0,1673.0,R101,-24.0,8.0,-28.0,-220.0,2693.0,-627.0,-0.95849884,1.6148312,0.77827114,0.69159395,-3.0753064,1.1330345,4.3955803,0.6740619,1.5030708,-0.015593896,0.9206464,-0.088089146,-0.14720464,1.2410948,0.8390317,-0.5985127,8.9080105,0.0,9.0,10.0,1.0,-2.0,13.0,15.0,12.0,3.0,2.0,0.0,5.0,2.0,22.0,8.0,6.0,106.0
9.343,L101,-20.0,0.0,0.0,2.0,1.0,1009.0,5.0627604,10.587613,6.6222234,4.976204,3.4822307,15.071168,14.587819,12.513377,7.6062,8.901807,14.37633,11.914738,0.34354064,0.57467,0.42136043,1.1005566,118.1426,81.0,114.0,104.0,78.0,111.0,187.0,220.0,207.0,122.0,114.0,177.0,190.0,3.0,11.0,11.0,8.0,1738.0,R101,296.0,10.0,21.0,-181.0,523.0,783.0,-1.2309331,0.79405826,0.8080829,0.82242346,-2.9181287,0.9995556,4.095915,0.523243,1.4680909,-0.015593896,0.9144459,0.19552408,-0.3845588,0.751199,0.4729377,-1.1498079,6.146453,-3.0,0.0,6.0,5.0,-1.0,11.0,3.0,5.0,4.0,2.0,-3.0,8.0,-2.0,9.0,4.0,3.0,51.0
9.434,L101,-32.0,-3.0,-1.0,-19.0,-33.0,1020.0,5.955392,11.346664,7.3924227,6.1659474,4.751572,20.282745,23.09278,16.944023,7.2591105,6.7981925,10.315682,7.361791,0.45152625,0.0512933,-0.38901776,0.82150817,128.60164,97.0,121.0,115.0,103.0,133.0,235.0,294.0,260.0,118.0,87.0,133.0,137.0,5.0,2.0,3.0,2.0,1845.0,R101,338.0,16.0,12.0,-242.0,113.0,1223.0,-1.0499684,0.8930551,0.83362854,0.7235645,-2.6130366,0.8661904,4.1200867,0.5069384,1.4680909,-0.4254652,0.9144459,-0.1864424,-0.14720464,0.823661,0.92786545,-0.9626641,6.692745,-1.0,1.0,4.0,2.0,1.0,9.0,4.0,4.0,4.0,-1.0,-3.0,4.0,2.0,11.0,9.0,4.0,54.0
