,left.ang.x,left.ang.y,left.ang.z,left.acc.x,left.acc.y,left.acc.z,left.forces.0,left.forces.1,left.forces.2,left.forces.3,left.forces.4,left.forces.5,left.forces.6,left.forces.7,left.forces.8,left.forces.12,left.forces.13,left.forces.14,left.forces.17,left.forces.18,left.forces.21,left.forces.22,right.ang.x,right.ang.y,right.ang.z,right.acc.x,right.acc.y,right.acc.z,right.forces.0,right.forces.1,right.forces.2,right.forces.3,right.forces.4,right.forces.5,right.forces.6,right.forces.7,right.forces.8,right.forces.12,right.forces.13,right.forces.14,right.forces.17,right.forces.18,right.forces.21,right.forces.22
0,-12.0,5.0,0.0,33.0,53.0,976.0,0.18552329,0.91916835,0.95407593,0.6236984,0.61590886,1.3092263,3.2333996,0.511785,1.158789,5.583944,2.1153421,0.3024515,27.980322,7.9727635,26.646639,29.618837,114.0,79.0,34.0,-43.0,1312.0,628.0,-1.1408108,0.5892044,0.7980176,0.96101207,-2.7640522,0.2010139,4.0718846,0.55992734,1.4680909,-0.015593896,0.91615796,-0.38909772,-0.08634382,0.9343169,0.08753522,-0.9626641
1,-12.0,9.0,0.0,24.0,43.0,1010.0,0.18552329,0.91916835,0.95407593,0.4464872,0.61590886,1.8226972,3.3212454,0.65562785,1.4746094,7.1965947,2.1153421,0.5312053,30.283485,8.333723,24.50929,27.364233,182.0,73.0,9.0,56.0,890.0,982.0,-1.2309331,0.5892044,0.77827114,0.9256469,-2.4650414,0.13464636,4.0479956,0.54091585,1.4356092,-0.015593896,0.91407496,-0.38909772,-0.08634382,0.9343169,0.08753522,-0.9626641
2,-8.0,8.0,0.0,19.0,35.0,1004.0,0.3026972,0.9659907,0.9770462,0.4464872,1.1951033,2.391122,3.2333996,0.9592206,2.1367946,7.6695533,2.1153421,0.9162328,29.92486,8.933559,22.543837,23.955046,213.0,83.0,33.0,-63.0,357.0,1274.0,-0.95849884,0.8930551,0.8080829,0.9968515,-2.7640522,0.13464636,4.0718846,0.55992734,1.4356092,-0.28699034,0.9206464,-0.4934752,-0.14720464,0.7872999,0.3785097,-0.9626641
3,-8.0,9.0,4.0,14.0,29.0,1001.0,0.6762685,0.91916835,1.0010482,0.35614976,1.7089458,2.955814,3.5014343,1.2723054,3.4868321,9.725572,3.266219,1.4399922,31.186981,9.322289,19.428808,19.811451,171.0,84.0,37.0,-377.0,-331.0,1434.0,-0.95849884,0.5892044,0.7897148,0.788982,-2.7640522,0.2010139,4.000637,0.54091585,1.5806947,0.37804067,0.91615796,-0.4934752,-0.14720464,0.6444469,-0.11332944,-1.7320627
4,-5.0,5.0,0.0,10.0,25.0,1008.0,1.1169024,1.1117884,1.0260649,0.35614976,3.1411588,5.1427746,4.251169,1.399149,5.0187197,11.475071,5.3761363,1.893842,28.858387,8.333723,15.179259,15.970447,154.0,116.0,64.0,-469.0,-402.0,1688.0,-1.2309331,0.48315126,0.8199424,0.75602806,-2.4650414,0.068306506,3.9538326,0.5069384,1.4680909,0.24858661,0.9206464,0.10285662,-0.14720464,0.6797736,0.08753522,-1.3403915
5,-5.0,0.0,0.0,5.0,22.0,1006.0,1.2347175,1.3720835,1.135938,0.6236984,4.254269,6.8149643,6.2564983,1.9518297,7.4327326,12.339206,6.521978,2.141981,24.06325,7.9727635,10.457656,10.689362,184.0,113.0,48.0,-164.0,-576.0,1606.0,-0.95849884,0.5892044,0.783143,0.82242346,-2.6130366,0.26740894,4.0479956,0.54091585,1.4356092,0.24858661,0.9206464,-0.28676605,-0.14720464,0.57455915,0.4729377,-1.1498079
6,-8.0,-1.0,0.0,9.0,15.0,1004.0,1.4158595,1.4266679,1.1965274,0.53566635,5.083484,9.288441,8.091269,3.8124459,8.727177,13.062408,7.7891746,2.8843443,16.371284,5.7447386,5.0076904,6.1358137,169.0,114.0,-29.0,93.0,-556.0,1453.0,-1.2309331,0.5892044,0.77827114,0.85634995,-2.320026,0.0019945984,4.0242467,0.49203193,1.4680909,-0.5658293,0.9173196,-0.8192602,-0.26711157,0.6093758,0.4729377,-2.346532
7,-12.0,-3.0,0.0,10.0,11.0,1008.0,1.727164,2.2739806,1.7146137,1.3663871,4.8823867,14.269712,10.267902,6.3778677,10.419384,13.207915,10.507002,3.3892727,8.370716,3.6407626,0.8090736,2.2930067,155.0,68.0,-84.0,445.0,-590.0,1411.0,-0.95849884,0.37454644,0.7980176,0.9256469,-2.320026,0.2010139,4.0242467,0.5802484,1.4680909,-0.28699034,0.91407496,-0.1864424,-0.3261457,0.57455915,0.8390317,-1.3403915
8,-7.0,-11.0,0.0,12.0,8.0,1026.0,2.5669734,4.712613,2.2692344,2.7389574,6.4117618,19.707241,16.344027,9.305559,11.250794,11.11419,11.077273,3.2362866,1.7738748,1.4703304,-0.38901776,1.2944504,125.0,35.0,-64.0,577.0,-933.0,1267.0,-1.2309331,0.5892044,0.7750686,0.85634995,-2.1779497,0.3338313,4.0479956,0.523243,1.4356092,-0.15037605,0.9274927,-0.38909772,-0.20746252,0.6444469,0.3785097,-1.1498079
9,-78.0,-37.0,7.0,60.0,-12.0,1347.0,4.4723735,8.083775,4.218085,3.8855007,7.940204,25.05516,26.064976,12.288474,10.58634,5.583944,6.425278,1.0761755,0.86577916,0.78896344,-0.18184212,1.0059359,38.0,6.0,10.0,502.0,-1602.0,1063.0,-1.1408108,0.79405826,0.77827114,0.89075863,-2.1779497,0.3338313,4.0479956,0.55992734,1.4680909,0.24858661,0.9206464,-0.9321988,-0.08634382,0.7153573,0.18585505,-0.7789142
10,-128.0,-9.0,6.0,17.0,-22.0,1291.0,5.62754,11.128631,4.862074,5.0224934,9.35323,29.263338,39.301643,19.143757,5.9581122,3.707407,3.0303478,-0.05480285,0.68147284,0.4635567,-0.07942656,0.91290903,-127.0,-96.0,38.0,701.0,-2106.0,951.0,-1.0499684,0.8930551,0.7980176,1.0699425,-2.0387714,0.2010139,4.0242467,0.6018505,1.5030708,1.2375529,0.97752035,-0.5999362,1.0353336,0.751199,3.7965746,4.192791
11,-192.0,2.0,9.0,41.0,-78.0,1334.0,6.009326,12.006039,6.483519,7.5157075,5.3607,29.263338,37.051857,23.40833,1.8669722,2.379787,1.3840313,-0.05480285,0.50728446,-0.010825335,0.22326112,0.6875268,-106.0,-123.0,0.0,46.0,662.0,1289.0,-1.0499684,0.5892044,0.77350503,1.1448987,-1.638215,0.2010139,4.0479956,0.49203193,1.3092324,1.5823739,0.93664944,-0.4934752,2.2278454,1.8198502,9.3424835,6.8499293
12,-234.0,20.0,19.0,101.0,-148.0,1426.0,5.7376695,13.685846,8.891005,10.265539,1.9982185,17.917282,23.37522,23.540623,1.4746094,2.2313905,1.0408128,-0.30362397,0.50728446,0.29151344,-0.49379984,0.91290903,-118.0,-86.0,-5.0,-238.0,133.0,1213.0,-0.6812132,0.8930551,0.7783516,1.1448987,-2.0387714,0.13464636,4.0479956,0.46653515,1.2747478,1.8049235,0.9954594,-0.38909772,4.686109,2.741341,20.395226,11.774961
13,-294.0,49.0,42.0,196.0,-272.0,1599.0,5.460649,11.565593,10.054206,11.279576,0.9487908,8.881858,11.045062,16.296583,1.4060863,0.7412056,0.99591917,-0.05480285,1.4043623,0.3496027,-0.49379984,0.73176587,-192.0,-132.0,13.0,-163.0,125.0,1580.0,-0.58810455,0.79405826,0.77827114,0.85634995,-1.5102179,0.3338313,4.000637,0.5069384,1.239265,4.0069466,1.061603,0.10285662,14.835966,6.2442946,26.023008,21.770475
14,-340.0,-1.0,57.0,341.0,-760.0,2336.0,4.1673717,8.285815,7.888204,6.317114,0.14933562,5.3444633,6.074574,7.9568486,1.1664679,1.2045084,1.0978341,0.8622928,0.99411494,0.7363365,-0.49379984,0.64371467,-85.0,-63.0,14.0,-11.0,33.0,1274.0,-0.95849884,0.79405826,0.7980176,1.1071887,-1.5102179,0.66635096,4.0718846,0.5069384,1.2207155,5.526054,1.3611367,0.71459866,22.162844,9.956093,26.700804,21.489424
15,-337.0,-15.0,76.0,-127.0,-461.0,2623.0,2.5669734,3.8842988,4.218085,3.579716,-0.32549277,2.830355,4.079858,2.4601977,1.2358999,1.395426,1.0575255,0.69842094,0.50728446,0.23265727,-0.59939283,0.60033345,-5.0,-13.0,1.0,5.0,8.0,1090.0,-0.95849884,0.5892044,0.77350503,1.2607844,-0.6872919,0.7329366,4.0718846,0.55992734,1.3042525,7.5027375,2.0749316,1.7773296,22.320189,12.472679,26.023008,19.209938
16,-301.0,-63.0,112.0,588.0,644.0,2770.0,0.62537456,1.4820763,1.2941169,2.3623683,-0.8445332,1.8226972,3.5014343,0.71829695,1.7275879,0.5873412,1.0762466,0.0060154353,0.86577916,0.0512933,-0.07942656,0.95922124,-3.0,-4.0,0.0,-38.0,17.0,1005.0,-0.86649245,0.692807,0.78924006,1.6761407,0.017956518,2.3401043,4.3955803,0.6018505,1.2737663,7.44246,2.1353674,2.396417,24.58096,13.459782,20.277752,13.784124
17,90.0,15.0,41.0,394.0,3198.0,203.0,0.22299235,1.0137068,0.9770462,0.4464872,-0.8445332,0.98210907,3.1756516,0.36488646,1.6671574,0.7950735,1.1903547,-0.36728334,0.68147284,0.0512933,0.322673,1.0059359,-3.0,-2.0,0.0,-39.0,20.0,1002.0,-0.774036,0.8930551,0.7968964,1.5895666,1.6245738,3.5608418,4.526822,0.62470526,1.227121,6.7695646,2.8657882,3.1510415,22.47808,12.035616,14.700438,8.845736
18,238.0,144.0,-3.0,180.0,1391.0,844.0,0.22299235,0.9659907,0.9770462,-0.016990552,-0.78185743,0.9159696,3.0902352,0.34328243,1.7918508,0.68860215,1.1903547,-0.24055967,0.45152625,-0.13767837,0.022221994,1.0530491,-4.0,-1.0,0.0,-40.0,16.0,999.0,-0.86649245,1.1774578,0.7968964,1.5895666,2.175037,3.9719021,5.2751517,0.91622525,1.5796913,6.6445236,3.1568682,3.5796535,16.577682,10.358094,7.332896,7.069235
19,280.0,69.0,1.0,561.0,1054.0,649.0,0.18552329,1.0137068,0.9770462,-0.11327149,-0.8445332,1.0479956,3.1185477,0.36488646,2.0083463,0.49160206,1.1570392,-0.24055967,0.39694083,0.112566754,0.5193339,1.1005566,-8.0,0.0,-1.0,-44.0,13.0,1001.0,-0.21431808,1.6148312,0.8892476,1.1830697,3.0354097,4.6628733,5.899135,1.719542,1.516997,6.3910556,3.3066435,4.2208714,10.42841,7.9031672,3.5050826,5.1891584
20,347.0,-61.0,-117.0,812.0,-192.0,1856.0,0.08343187,0.8282364,0.95407593,-0.016990552,-0.60164267,1.2442449,3.1756516,0.34328243,2.0083463,0.40170717,1.2269567,-0.17807701,0.24034686,0.17301486,0.123114325,1.1484545,-10.0,1.0,-2.0,-40.0,5.0,1001.0,0.25089818,2.3880916,1.3183998,1.1448987,2.9360063,6.504446,6.6358595,4.2381916,2.1511,6.6445236,3.382508,3.3244283,5.711659,5.4736714,2.694558,3.5664854
21,340.0,-94.0,-110.0,802.0,-566.0,2268.0,0.115675956,0.91916835,0.9321551,-0.11327149,-0.78185743,0.98210907,3.1756516,0.32253042,2.1731606,0.49160206,1.1903547,-0.17807701,0.34354064,-0.07380916,0.6166038,0.91290903,-14.0,-4.0,-5.0,-50.0,-6.0,1016.0,3.8521726,5.3901453,2.7998602,2.4286761,3.4222822,11.408275,10.439177,9.699979,2.4567375,5.934269,4.834421,3.2814074,1.2493383,2.2665539,1.2736645,1.0311154
22,285.0,-160.0,-132.0,1139.0,-1235.0,2386.0,0.115675956,0.87324756,0.9321551,0.07808286,-0.4325028,1.4385979,3.0902352,0.36488646,2.0083463,0.3590551,1.1903547,-0.43155134,0.6222699,0.23265727,0.322673,0.86700326,-34.0,-22.0,-5.0,-50.0,-20.0,1047.0,4.4165444,6.3705015,2.5297706,2.8963847,3.4222822,12.267524,13.684111,11.685258,2.7344742,4.4932165,3.4589937,2.54837,0.48761344,1.2018073,0.5661601,0.729508
23,198.0,-250.0,-96.0,-428.0,-1932.0,2634.0,0.115675956,0.91916835,0.9321551,-0.016990552,-0.3784427,1.3740072,3.062081,0.41060627,1.8600168,0.40170717,1.0762466,-0.36728334,0.45152625,-0.13767837,-0.38901776,0.7764276,-78.0,-6.0,-13.0,-13.0,-70.0,1101.0,5.0114436,9.411694,2.9108396,4.4726686,3.486907,18.823175,22.831795,21.535364,2.3513258,4.1723957,1.9004706,0.28637108,0.42157438,0.8971685,1.4413807,0.254838
24,157.0,-2.0,-55.0,-851.0,-2794.0,2047.0,0.115675956,0.91916835,0.95407593,-0.11327149,-0.27362347,1.179053,3.1756516,0.34328243,2.0083463,0.3179901,1.0762466,-0.36728334,0.39694083,-0.13767837,-0.18184212,1.2454054,-105.0,-7.0,-17.0,-81.0,-133.0,1193.0,5.868983,9.743769,2.9108396,5.585484,3.1653857,20.631796,26.450027,27.19927,1.516997,3.3986845,1.5374354,0.0083313575,0.62133616,1.0094075,1.2736645,-0.9626641
25,-4.0,28.0,28.0,-394.0,-3419.0,1543.0,0.08343187,0.91916835,0.9321551,0.07808286,-0.17300975,1.179053,3.2333996,0.38733146,1.9321578,0.49160206,1.0762466,-0.24055967,0.34354064,0.7363365,4.1157713,2.8640518,-144.0,-10.0,-33.0,-119.0,-189.0,1269.0,6.190088,9.08585,3.7870014,7.446526,2.4678545,17.324291,23.238409,29.577047,1.3219043,2.3370907,1.282413,-0.088089146,1.3216846,0.7153573,0.3785097,-0.42141443
26,-149.0,126.0,-6.0,-449.0,-3068.0,680.0,0.115675956,0.87324756,0.95407593,0.07808286,-0.66044307,1.1136401,3.1185477,0.34328243,1.8600168,0.8501687,1.037792,-0.36728334,2.7554116,1.7374675,16.255362,13.637768,-201.0,-5.0,-54.0,-200.0,-281.0,1443.0,6.227955,8.350797,5.5576186,9.483266,1.6245738,10.329208,14.9468,22.72518,1.260994,1.5823739,1.1769611,-0.38909772,1.6160301,0.751199,0.28283086,-1.1498079
27,-192.0,83.0,3.0,-155.0,313.0,1944.0,0.18552329,0.91916835,1.0010482,0.35614976,-0.12420734,0.9159696,3.0902352,0.26549876,1.6671574,1.7310259,1.037792,-0.30362397,10.128521,4.791052,32.348076,36.89761,-294.0,-31.0,-99.0,-342.0,-325.0,1716.0,6.909842,7.4600554,7.4148293,10.227351,1.0635871,5.645242,9.7849,15.922462,1.2231205,0.37804067,1.0375441,-0.38909772,1.5417067,0.9343169,0.7491641,-1.5344609
28,-210.0,41.0,-3.0,103.0,86.0,1604.0,0.115675956,0.8282364,0.95407593,0.53566635,0.01652525,0.9159696,3.0902352,0.26549876,1.8600168,3.3073988,1.0408128,0.06630566,23.073807,8.705416,27.994503,33.069324,-397.0,4.0,-156.0,-15.0,-439.0,2676.0,4.377255,3.9528904,3.1948752,1.2607844,-1.7689453,1.5341839,5.529406,3.3823211,1.2747478,1.2375529,0.9480702,0.19552408,0.22680476,0.6444469,0.18585505,-2.138051
29,-5.0,3.0,-1.0,0.0,14.0,1043.0,0.5755724,0.9659907,1.0260649,0.96459174,1.3451942,2.1393056,3.1185477,0.59584934,1.5503165,5.420509,2.0533543,1.3887144,28.155167,11.599948,24.38915,26.790537,-267.0,-3.0,-172.0,-833.0,77.0,3696.0,0.15836105,1.3574727,0.9273085,0.75602806,-2.7640522,1.400345,4.5804095,0.81747633,1.4680909,0.8789219,0.9206464,-0.70851856,-0.024885884,0.823661,-0.11332944,-1.1498079
30,-1.0,0.0,0.0,8.0,20.0,1004.0,0.62537456,1.0623085,1.0790735,0.6236984,1.5253175,3.081364,3.8479512,0.71829695,2.0801985,6.396265,3.0303478,2.092488,26.767101,11.068397,17.923712,18.74214,110.0,-62.0,37.0,-571.0,3238.0,-592.0,-0.95849884,0.5892044,0.7980176,0.66011906,-2.7640522,0.5997927,4.243103,0.5802484,1.5030708,-0.015593896,0.91407496,-0.70851856,-0.14720464,0.6797736,-0.11332944,-0.5985127
31,-6.0,-1.0,-1.0,5.0,20.0,1000.0,1.1754899,1.0623085,1.135938,0.8810291,2.1343691,4.942918,4.909242,1.2723054,2.9735923,7.8259044,4.547586,2.1914272,22.259396,9.401301,11.922794,11.641997,214.0,-4.0,75.0,-801.0,1238.0,480.0,-0.6812132,0.48315126,0.7980176,0.69159395,-2.7640522,0.66635096,4.0718846,0.55992734,1.3779742,-0.015593896,0.91407496,-0.5999362,-0.14720464,0.6093758,0.08753522,-0.7789142
32,-7.0,-1.0,0.0,5.0,18.0,1000.0,1.1169024,1.5953346,1.2607138,1.7427802,2.540623,7.6314597,6.92636,2.7281032,5.187708,9.651392,5.0037165,2.5865316,17.265177,7.3501644,7.1656194,7.399308,275.0,37.0,43.0,-276.0,961.0,621.0,-1.1408108,0.5892044,0.7897148,0.7235645,-2.6130366,0.66635096,4.0242467,0.55992734,1.2607923,-0.7081114,0.9144459,-0.5999362,0.22680476,0.57455915,0.28283086,-0.5985127
33,-8.0,0.0,0.0,10.0,14.0,1002.0,1.4158595,2.2085342,1.7146137,2.6780214,2.958924,10.210004,9.409174,5.5419226,6.824736,9.725572,6.6188374,2.934265,12.386659,5.801335,3.255556,4.4026217,326.0,61.0,57.0,-201.0,593.0,947.0,-0.95849884,0.79405826,0.7897148,0.69159395,-2.6130366,0.5997927,4.0479956,0.54091585,1.3298384,0.24858661,0.9206464,-0.5999362,-0.024885884,0.47162265,0.65822107,-0.7789142
34,-7.0,-3.0,0.0,7.0,10.0,1005.0,2.6975994,4.712613,2.7931712,2.858772,3.3325207,12.630793,11.79441,7.5582027,7.3459377,10.021013,7.202639,2.6855364,5.929266,4.1713963,1.0927552,2.4049075,338.0,84.0,54.0,-129.0,-19.0,1324.0,-0.95849884,0.79405826,0.7897148,0.82242346,-2.7640522,0.068306506,4.000637,0.54091585,1.3298384,-0.28699034,0.9206464,-0.8192602,0.037163474,0.5399956,0.65822107,-0.5985127
35,-4.0,-8.0,1.0,15.0,2.0,1012.0,3.539445,5.9578342,2.9595702,3.0336108,3.9643826,15.071168,14.22105,10.063028,8.641462,9.4280405,8.376242,2.6855364,2.0866559,2.3668606,0.022221994,1.5452119,345.0,99.0,40.0,-69.0,-119.0,1835.0,-0.86649245,0.692807,0.83362854,0.89075863,-3.0753064,0.26740894,4.0242467,0.5802484,1.3298384,-0.5658293,0.9206464,-0.8192602,0.099798664,0.5056839,1.0157061,-1.1498079
36,0.0,-8.0,5.0,42.0,3.0,1020.0,4.8297687,8.184629,4.6664734,3.579716,4.623358,21.816229,17.076338,11.552572,8.727177,6.3154964,7.202639,1.993321,0.99411494,1.1897804,0.022221994,1.3438697,329.0,106.0,45.0,-271.0,-473.0,2139.0,-1.1408108,0.8930551,0.77827114,0.69159395,-2.6130366,0.2010139,4.0479956,0.523243,1.3298384,0.11738434,0.91407496,-0.28676605,0.22680476,0.5056839,1.1885669,-0.7789142
37,-47.0,3.0,7.0,7.0,-12.0,1066.0,5.955392,10.803307,4.6017094,4.08248,5.72175,22.787533,23.804867,14.562842,6.477418,3.7880456,5.282478,0.5873366,0.5642031,0.68309057,-0.07942656,1.0530491,251.0,137.0,1.0,-503.0,-950.0,2142.0,-1.1408108,0.48315126,0.8199424,0.75602806,-2.7640522,0.3338313,3.977166,0.523243,1.2607923,-0.15037605,0.91407496,-0.5999362,0.29116505,0.40424585,0.3785097,-1.5344609
38,-76.0,6.0,11.0,-1.0,-29.0,1093.0,6.5394697,11.6753845,5.125731,4.8836346,5.575401,26.501413,30.46248,19.037804,4.6840677,2.9922156,3.509775,0.0060154353,0.86577916,0.57467,-0.81305677,1.1005566,253.0,180.0,-22.0,111.0,-1259.0,2215.0,-0.95849884,0.5892044,0.8199424,0.75602806,-2.9181287,0.26740894,3.977166,0.54091585,1.3298384,-0.015593896,0.9227458,-1.1648189,-0.08634382,0.47162265,0.18585505,-0.5985127
39,-106.0,2.0,7.0,-18.0,-70.0,1179.0,6.9548116,11.456018,6.483519,6.8950057,5.5031896,28.69629,34.513504,21.398481,2.313907,2.682582,1.9927261,-0.24055967,0.5642031,0.3496027,-0.49379984,0.91290903,15.0,-42.0,-3.0,1232.0,-3508.0,1179.0,-1.1408108,0.5892044,0.77827114,0.96101207,-2.4650414,0.13464636,4.0242467,0.54091585,1.3779742,1.1195782,0.91407496,-0.8192602,0.8259624,0.8602836,2.7692547,4.023445
40,-156.0,8.0,11.0,31.0,-121.0,1306.0,6.5394697,11.456018,7.675235,9.040068,3.18813,26.769663,31.012396,20.925844,1.3175522,2.2313905,1.4689012,-0.24055967,0.2913384,0.23265727,-0.59939283,0.6875268,-167.0,-152.0,53.0,1062.0,-3232.0,865.0,-1.1408108,1.0846632,0.7968964,0.96101207,-2.6130366,0.2010139,4.0479956,0.46653515,1.2747478,2.0218422,0.961709,-0.4934752,2.9514747,1.7767159,15.019729,9.092937
41,-275.0,11.0,45.0,222.0,-290.0,1657.0,5.2347846,10.372899,9.688718,13.48054,1.0733712,9.786478,8.972074,14.397838,1.3175522,1.1427956,1.026456,-0.30362397,0.74179983,0.4635567,-0.49379984,0.7764276,-252.0,-85.0,37.0,354.0,139.0,1831.0,-0.774036,0.8930551,0.77517587,0.85634995,-2.0387714,0.3338313,4.0242467,0.45600685,1.2489771,3.9228933,1.0375441,-0.1864424,12.435921,5.9184117,26.5642,24.419666
42,-391.0,1.0,95.0,497.0,-544.0,2208.0,5.177698,6.5187488,8.6030445,9.178041,0.47034997,6.8877997,6.44255,9.5108795,1.1740463,0.4459035,1.0555149,0.06630566,1.6980313,0.62920773,-0.59939283,0.73176587,-95.0,-82.0,8.0,-93.0,29.0,1429.0,-0.86649245,1.0846632,0.77827114,0.9968515,-1.9024504,0.5332616,4.0718846,0.4395487,1.2737663,6.7695646,1.3209583,0.71459866,22.162844,9.956093,22.68226,19.85987
43,-457.0,-102.0,126.0,241.0,-589.0,2717.0,3.2180698,4.712613,3.6607985,3.683196,-0.17300975,3.9033384,4.645402,4.172376,1.1748728,1.5943552,0.991665,0.18535511,0.74179983,0.4635567,-0.49379984,0.64371467,-6.0,-22.0,3.0,-15.0,27.0,1088.0,-0.58810455,1.0846632,0.77827114,1.1071887,-0.90978354,0.79954964,4.0242467,0.47855392,1.516997,7.6230106,2.2594805,2.0722098,22.95505,13.096725,21.826788,17.364826
44,-426.0,-31.0,153.0,525.0,99.0,3383.0,0.9453843,1.5953346,1.8447038,1.6694453,-0.54407275,3.018574,3.7194645,1.4425007,1.508163,0.63730115,1.0111572,-0.17807701,0.86577916,0.23265727,0.022221994,0.82150817,-3.0,-6.0,0.0,-40.0,31.0,1005.0,-0.774036,0.79405826,0.783143,1.4629576,0.6980015,2.8128917,4.1688595,0.49203193,1.6475185,8.281475,2.7248724,3.018198,24.251316,13.551288,17.755634,13.153445
45,-64.0,70.0,97.0,58.0,3345.0,-1219.0,0.26207143,0.9659907,1.0010482,1.4436396,-0.7205044,1.8862287,3.2044446,0.62537205,1.7275879,0.49160206,1.1903547,-0.17807701,0.34354064,0.29151344,-0.28503552,0.86700326,-4.0,-3.0,0.0,-44.0,38.0,999.0,-0.95849884,0.9898924,0.7783516,1.2216991,1.5096245,3.356177,4.7171702,0.62470526,1.9224021,7.44246,3.5360787,3.9184313,19.718834,11.949063,12.121296,8.377858
46,325.0,77.0,-2.0,421.0,1546.0,1297.0,0.14972906,0.91916835,0.9770462,0.7963677,-0.7205044,1.1136401,2.9785597,0.78377414,1.7918508,0.49160206,1.1570392,-0.30362397,0.34354064,0.112566754,-0.07942656,1.0059359,-6.0,0.0,0.0,-39.0,32.0,1002.0,-0.58810455,1.1774578,0.8164951,1.2607844,2.3468354,4.3164005,5.4326553,1.2623016,1.9661077,7.44246,4.1718097,3.9184313,14.187902,9.172639,6.3560925,6.6018796
47,347.0,-8.0,-21.0,675.0,994.0,694.0,0.18552329,0.91916835,0.95407593,0.53566635,-0.90856284,1.1136401,3.0902352,0.38733146,2.0083463,0.3590551,1.1570392,-0.30362397,0.2913384,0.23265727,-0.28503552,1.1005566,-10.0,1.0,-1.0,-49.0,28.0,1005.0,-0.120884605,2.2417529,1.1258825,0.9968515,2.7995899,5.151636,6.4814982,2.7363286,2.403607,7.8627467,4.0906787,3.8333952,8.227627,5.9184117,2.9178655,5.3075147
48,387.0,-23.0,-69.0,358.0,448.0,1147.0,0.14972906,0.87324756,0.91130126,0.35614976,-0.9739776,0.7159244,2.9785597,0.43469995,1.9321578,0.5387615,1.1570392,-0.36728334,0.45152625,0.112566754,-0.18184212,1.0059359,-11.0,2.0,-3.0,-49.0,21.0,1004.0,2.3479967,3.4169607,1.5037286,1.2607844,3.133092,7.531362,7.1213527,3.563199,2.7344742,7.922576,3.8499825,3.2381856,3.453884,3.9957566,2.0060406,3.0580373
49,383.0,-83.0,-106.0,517.0,71.0,1355.0,0.14972906,0.91916835,0.9321551,0.4464872,-0.90856284,0.9159696,3.0062442,0.36488646,2.0886557,0.3179901,1.2669028,-0.49644136,0.14204775,0.0512933,-0.18184212,1.1005566,-14.0,0.0,-5.0,-55.0,13.0,1009.0,3.75372,4.718418,2.2212644,1.6761407,3.0681283,9.367864,9.064328,5.3655314,2.3513258,7.562917,3.5360787,2.9279172,1.766131,2.5480466,1.1025935,1.7356439
50,381.0,-85.0,-126.0,413.0,-76.0,1911.0,0.115675956,0.91916835,0.9321551,-0.016990552,-0.78185743,0.9159696,3.1756516,0.32253042,1.9321578,0.27855557,1.1570392,-0.24055967,0.34354064,-0.13767837,-0.49379984,0.95922124,-23.0,-10.0,-5.0,-56.0,3.0,1019.0,4.377255,7.177117,2.4771082,2.1342795,3.390104,12.006949,10.500783,8.725425,2.199781,6.5183907,4.666749,2.6946414,1.106159,1.5652046,1.1025935,1.8683945
51,390.0,-115.0,-83.0,498.0,-179.0,2503.0,0.08343187,0.87324756,0.9321551,-0.016990552,-0.66044307,1.1136401,3.1756516,0.36488646,1.7918508,0.3179901,1.1903547,-0.30362397,0.34354064,-0.07380916,-0.28503552,0.86700326,-40.0,-27.0,-8.0,-54.0,-18.0,1034.0,5.2318606,8.661406,2.2713938,2.581159,3.7518406,13.700244,14.010007,12.343258,2.565472,5.025509,3.382508,1.5877953,0.29116505,0.9717296,1.0157061,0.254838
52,-224.0,89.0,-79.0,-563.0,-4047.0,763.0,0.115675956,0.91916835,0.95407593,0.07808286,-0.2228055,1.3092263,3.2625175,0.511785,1.8600168,0.5387615,1.0021396,-0.24055967,0.6222699,0.84098905,5.651701,5.388263,-62.0,-8.0,-12.0,-53.0,-46.0,1115.0,5.1382117,10.081868,2.5297706,3.566203,3.6509569,15.40556,18.802279,17.703451,2.6210375,4.0069466,2.3877184,0.6322977,0.099798664,1.0473517,1.3579235,0.09050758
53,-170.0,126.0,-83.0,1.0,57.0,1260.0,0.18552329,0.87324756,0.91130126,0.07808286,-0.27362347,1.0479956,3.2044446,0.32253042,1.9321578,1.0224552,1.0555149,-0.49644136,3.292532,1.9943563,20.831139,18.32694,-316.0,24.0,-170.0,-968.0,1709.0,3593.0,0.7071733,1.6148312,0.78924006,0.59866744,-2.6130366,1.400345,4.2681437,0.6487849,1.405584,0.63181406,0.9144459,-0.5999362,-0.024885884,0.57455915,0.18585505,-0.9626641
54,-260.0,74.0,17.0,107.0,72.0,1629.0,0.14972906,0.74097484,0.9770462,0.6236984,-0.17300975,1.179053,2.869362,0.30264163,1.3456658,4.1935925,1.0978341,0.0060154353,25.066006,9.322289,27.31166,29.463291,127.0,-41.0,1.0,-676.0,2274.0,1365.0,-0.02758699,0.5892044,0.783143,0.6291427,-3.2356255,0.3338313,4.1444016,0.523243,1.3527391,-0.015593896,0.9144459,-0.4934752,-0.08634382,0.6093758,0.08753522,-0.5985127
55,-24.0,21.0,-5.0,0.0,-21.0,1241.0,0.3026972,0.91916835,1.0010482,0.7105949,0.91704494,1.695256,3.062081,0.38733146,1.7219117,5.7471247,2.5845795,1.5926688,27.631784,12.145499,24.995834,26.648859,222.0,33.0,45.0,-717.0,1439.0,562.0,-0.86649245,0.5892044,0.77350503,0.66011906,-3.2356255,0.7329366,4.0718846,0.55992734,1.405584,-0.15037605,0.91407496,-0.70851856,-0.024885884,0.6093758,0.5661601,-0.24757458
56,-9.0,0.0,0.0,5.0,27.0,1001.0,1.2945465,2.3401487,1.8006647,2.6780214,2.1343691,8.169129,8.035142,5.5419226,4.354759,7.1965947,5.0037165,3.6479025,8.370716,5.5773163,3.255556,4.923165,285.0,62.0,23.0,-90.0,947.0,705.0,-0.86649245,0.5892044,0.8199424,0.7235645,-2.7640522,0.5997927,4.0242467,0.523243,1.405584,0.24858661,0.91407496,-0.5999362,0.037163474,0.5056839,0.3785097,0.41608608
57,-7.0,-2.0,0.0,4.0,18.0,1002.0,2.1761343,4.5426297,2.7931712,2.7389574,2.3496442,9.786478,9.03347,7.2279506,4.9346166,6.6378207,5.3761363,3.6479025,4.96378,4.403595,1.0927552,2.5179899,335.0,81.0,5.0,146.0,615.0,1137.0,-0.86649245,0.8930551,0.7750686,0.7235645,-2.9181287,0.13464636,4.0479956,0.5802484,1.2908818,-0.15037605,0.9144459,-0.38909772,-0.08634382,0.6093758,0.4729377,-0.07694865
58,-6.0,-6.0,2.0,12.0,13.0,1004.0,3.9813719,6.997482,3.1297653,3.2583425,2.4246933,12.724765,11.118119,8.965254,5.103089,7.037682,5.9446487,3.7528043,1.4763035,3.0567033,0.322673,1.5452119,363.0,96.0,-5.0,221.0,263.0,1578.0,-1.1408108,0.79405826,0.8199424,0.7235645,-2.7640522,0.5332616,4.0242467,0.5802484,1.3527391,-0.015593896,0.91407496,-0.8192602,0.16301422,0.6093758,1.1885669,-0.24757458
59,-3.0,-10.0,4.0,21.0,10.0,1017.0,4.770863,7.883076,4.281402,4.51152,2.958924,94.68869,13.084323,11.552572,5.7857947,5.093125,5.754003,2.6855364,0.50728446,1.909679,-0.18184212,1.2454054,374.0,105.0,23.0,212.0,8.0,2083.0,-1.1408108,0.48315126,0.8199424,0.82242346,-2.7640522,0.5332616,4.000637,0.55992734,1.3527391,-0.15037605,0.91407496,-0.9321988,0.29116505,0.5399956,0.4729377,-0.5985127
60,-29.0,12.0,5.0,22.0,2.0,1029.0,6.3819923,5.5024543,4.731459,5.347777,3.743883,151.07892,16.969954,12.740376,4.601195,4.1122165,3.0303478,1.8439589,0.45152625,1.0434259,-0.38901776,1.3936595,357.0,109.0,33.0,-94.0,-413.0,2449.0,-0.86649245,0.8930551,0.8080829,0.788982,-2.6130366,0.13464636,4.000637,0.55992734,1.3092324,-0.28699034,0.9144459,-0.8192602,0.35608995,0.5056839,0.8390317,-1.1498079
61,-63.0,8.0,9.0,5.0,-23.0,1355.0,6.434615,9.003039,4.927692,6.3680716,4.1363974,65.335075,25.138052,17.615463,3.411361,2.7594016,2.8777246,0.4746641,0.39694083,0.5194591,-0.49379984,1.1484545,312.0,132.0,35.0,-251.0,-983.0,2581.0,-0.95849884,0.79405826,0.8199424,0.85634995,-2.6130366,0.068306506,4.000637,0.5802484,1.3779742,-0.15037605,0.9144459,-0.8192602,0.55420226,0.47162265,0.8390317,-1.3403915
62,-96.0,9.0,9.0,-25.0,-51.0,1157.0,7.8317337,10.803307,6.001802,8.636273,4.1950126,94.68869,31.94974,24.214483,2.4377434,2.013074,1.6092986,-0.11616254,0.24034686,0.8924309,-0.49379984,0.95922124,217.0,116.0,50.0,465.0,-2315.0,2545.0,-0.95849884,0.5892044,0.8199424,0.9256469,-2.6130366,0.068306506,4.0242467,0.523243,1.405584,0.11738434,0.91407496,-0.8192602,0.16301422,0.37092736,0.28283086,-0.9626641
63,-141.0,6.0,6.0,0.0,-91.0,1262.0,7.676194,10.587613,6.0702386,11.119492,3.4317286,97.918915,32.718773,23.942436,1.5503165,1.7310259,1.2047257,-0.24055967,0.34354064,0.40694413,-0.70580804,0.73176587,142.0,110.0,31.0,972.0,-3136.0,1647.0,-0.86649245,0.5892044,0.77827114,0.9968515,-2.4650414,0.26740894,4.0718846,0.49203193,1.3298384,0.5057741,0.91407496,-0.5999362,0.22680476,0.5056839,0.65822107,0.254838
64,-199.0,21.0,20.0,71.0,-167.0,1376.0,6.487105,8.083775,6.8310924,13.658134,2.0317552,88.62194,24.389093,23.276854,1.3746294,1.3308556,0.99799067,-0.30362397,0.50728446,0.3496027,-0.70580804,0.73176587,-74.0,-32.0,18.0,782.0,-4044.0,1433.0,-0.95849884,0.8930551,0.77517587,0.85634995,-2.1779497,0.26740894,4.0479956,0.5802484,1.405584,1.0000433,0.9206464,-0.5999362,1.3216846,1.1240422,4.897728,5.1891584
65,-258.0,13.0,53.0,285.0,-299.0,1621.0,3.3471012,8.184629,7.3219337,15.394739,0.91704494,10.641277,12.668721,19.037804,1.2280577,0.7950735,1.0145017,-0.17807701,1.5492356,0.40694413,-0.38901776,0.6875268,-232.0,-69.0,25.0,-242.0,-454.0,762.0,-0.774036,0.79405826,0.77350503,0.788982,-2.6130366,0.40028092,4.0718846,0.4395487,1.3092324,1.8049235,0.93664944,-0.5999362,4.147883,2.0845134,20.277752,11.554126
66,-380.0,46.0,102.0,406.0,-287.0,1850.0,2.762892,4.127018,7.1812234,12.184775,0.39413992,6.8877997,7.704911,13.991202,1.1840464,0.4459035,0.99591917,0.0060154353,0.8032392,0.8924309,-0.28503552,0.7764276,-330.0,-79.0,12.0,19.0,-66.0,1916.0,-0.6812132,0.9898924,0.7783516,0.85634995,-2.320026,0.40028092,4.000637,0.46653515,1.227121,4.3344336,1.061603,-0.38909772,16.032925,6.31029,29.111372,26.79042
67,-420.0,-30.0,170.0,561.0,-836.0,2709.0,2.4364145,3.7253573,3.9674978,4.4174743,0.10589952,5.1427746,5.4275823,8.559762,1.1748728,1.5943552,1.0978341,0.5312053,0.6222699,0.68309057,-0.59939283,0.6875268,-116.0,-110.0,6.0,-69.0,40.0,1534.0,-0.774036,0.9898924,0.7750686,1.1071887,-1.3849128,0.40028092,4.1688595,0.47855392,1.5796913,7.382074,1.5852243,0.87444043,23.92391,12.035616,26.700804,22.629671
68,-412.0,17.0,175.0,572.0,-437.0,3306.0,0.83500034,1.6531698,2.0745327,1.8866427,-0.7205044,73.52069,4.0126667,2.8927345,1.3456658,0.9638952,0.9935302,0.06630566,0.45152625,0.5194591,-0.59939283,0.64371467,-4.0,-15.0,0.0,13.0,-14.0,1095.0,-0.02758699,0.9898924,0.7750686,0.9968515,1.1317731,2.677582,4.1688595,0.46653515,1.9661077,8.042182,2.1353674,2.4983895,24.251316,13.459782,24.964258,20.25808
69,-234.0,-6.0,208.0,1091.0,2330.0,2595.0,0.115675956,0.9659907,0.9770462,0.07808286,-0.8445332,2.6422114,3.2044446,0.6866062,1.6671574,0.40170717,1.100041,-0.11616254,0.8032392,0.0512933,-0.81305677,0.86700326,-1.0,-1.0,0.0,-29.0,15.0,1012.0,-0.49478763,0.8930551,0.7735506,1.5895666,2.1300063,3.4243383,4.5535374,0.47855392,1.8797586,7.562917,3.009853,2.8360145,23.11514,12.122455,22.19145,15.46822
70,319.0,85.0,-126.0,558.0,2117.0,1244.0,0.115675956,0.87324756,0.95407593,0.53566635,-0.9739776,1.0479956,3.0340843,0.511785,1.7275879,0.3590551,1.2269567,-0.17807701,0.5642031,0.29151344,0.022221994,0.95922124,-1.0,1.0,0.0,-33.0,22.0,999.0,-0.21431808,0.9898924,0.7750686,1.0699425,1.9893855,3.356177,4.9737105,0.5802484,1.7584327,7.6830297,3.0830038,2.8821821,21.538916,11.605696,15.126597,11.481998
71,330.0,66.0,-116.0,1079.0,800.0,719.0,0.14972906,0.7841428,0.9770462,0.35614976,-0.90856284,1.3092263,3.0902352,0.48530015,1.7275879,0.27855557,1.1903547,-0.17807701,0.5642031,0.17301486,0.123114325,1.1484545,-5.0,2.0,0.0,-32.0,25.0,994.0,-0.3078242,1.1774578,0.7735506,0.89075863,2.4678545,5.0115213,5.3375974,0.6018505,2.1033704,8.702122,3.1568682,3.1070695,17.269867,9.797215,9.617841,7.8054023
72,369.0,-70.0,-57.0,284.0,702.0,879.0,0.115675956,0.91916835,0.9321551,0.07808286,-0.90856284,1.1136401,3.0062442,0.511785,1.8600168,0.3179901,1.2269567,-0.49644136,0.24034686,0.29151344,0.123114325,1.0059359,-8.0,1.0,-2.0,-41.0,19.0,997.0,0.7071733,2.0153022,0.82838345,0.96101207,2.5831103,6.649426,6.2935867,0.78660965,2.199781,9.374504,4.0099845,3.1510415,12.803698,7.9031672,5.1219864,6.3795905
73,387.0,-73.0,-90.0,197.0,250.0,1147.0,0.14972906,0.87324756,0.9770462,-0.016990552,-1.0408092,1.1136401,3.0062442,0.45960155,2.0886557,0.3179901,1.1570392,-0.43155134,0.24034686,0.23265727,-0.28503552,1.1005566,-9.0,0.0,-4.0,-41.0,15.0,995.0,2.2747612,2.671903,0.94815916,0.9256469,2.9693742,7.605852,7.290952,1.437056,2.4567375,9.498961,4.2533584,3.70642,7.9120765,6.0479455,3.4320974,5.24901
74,381.0,-94.0,-100.0,75.0,-12.0,1624.0,0.08343187,0.8282364,0.91130126,-0.016990552,-0.90856284,1.2442449,3.0340843,0.5670702,1.8600168,0.3179901,1.1903547,-0.24055967,0.24034686,0.0512933,-0.38901776,0.95922124,-9.0,1.0,-5.0,-41.0,6.0,1006.0,3.9935899,3.4169607,1.4649823,1.0331625,3.133092,8.589698,7.290952,2.7937212,3.4724658,10.070082,4.9186883,3.7910128,4.415114,4.566103,2.3161838,4.509933
75,386.0,-106.0,-82.0,135.0,-74.0,2176.0,0.115675956,0.91916835,0.95407593,0.07808286,-0.7205044,1.3092263,3.1470196,0.38733146,2.1731606,0.24079579,1.1903547,-0.36728334,0.14204775,-0.010825335,-0.28503552,0.86700326,-11.0,3.0,-7.0,-50.0,2.0,1009.0,4.814318,5.3901453,1.6247147,1.4216319,3.486907,10.166767,7.9637184,3.8067539,3.4724658,9.066606,5.7736545,3.2381856,2.3064318,3.666969,1.9272367,2.4935765
76,-194.0,61.0,-1.0,-1459.0,-4327.0,3492.0,0.115675956,0.7841428,0.9321551,0.26464337,-0.54407275,1.1136401,3.1470196,0.511785,2.0083463,0.7950735,1.0021396,-0.49644136,1.2634943,1.1897804,9.508759,7.7586765,-19.0,-3.0,-11.0,-72.0,-10.0,1025.0,5.1382117,7.7500224,1.7524498,1.5895666,3.7859833,12.354929,9.727493,5.3025236,4.2899923,7.3215666,5.4293776,2.54837,0.8952313,2.1296027,0.8390317,1.8683945
77,-125.0,132.0,15.0,49.0,851.0,1070.0,0.115675956,0.8282364,1.0260649,0.07808286,-0.60164267,1.0479956,2.9785597,0.38733146,1.8600168,1.4608864,1.037792,-0.05480285,4.5518746,2.6510234,25.998707,25.00144,-109.0,-7.0,-14.0,48.0,-67.0,1283.0,6.1526995,8.661406,4.216827,5.3828464,3.7518406,19.714294,21.275253,17.913816,1.6129763,4.2538314,1.6850114,-0.088089146,0.62133616,0.9343169,0.4729377,-0.7789142
78,-359.0,33.0,3.0,-21.0,206.0,2317.0,0.14972906,0.8282364,1.052079,0.53566635,-0.2228055,1.179053,3.0340843,0.2836273,1.8600168,2.606189,0.9924446,-0.30362397,21.775158,7.216541,28.695936,33.94507,-436.0,0.0,-110.0,-608.0,-560.0,2422.0,5.7685614,5.5463953,5.297684,1.7644256,-1.7689453,4.040653,5.6945014,5.680887,1.2316191,-0.015593896,0.9144459,0.37543488,0.6890105,0.5056839,0.08753522,-1.9332438
79,-11.0,10.0,-3.0,-10.0,16.0,1080.0,0.62537456,0.9659907,1.0260649,0.7963677,1.3751245,2.2653375,3.062081,0.5390452,1.9182317,6.0725074,2.5845795,1.3372244,28.858387,12.237763,22.879215,24.212893,-408.0,-13.0,-118.0,36.0,-360.0,3104.0,4.2137504,2.741349,1.4649823,0.788982,-2.9181287,2.5424585,4.5804095,1.4825194,1.4680909,3.2158692,0.9206464,-0.1864424,-0.08634382,0.751199,-0.21597317,-2.138051
80,0.0,-1.0,0.0,-4.0,27.0,1014.0,1.0589948,1.1117884,1.0790735,0.6236984,2.0317552,3.1441905,3.53206,0.78377414,2.1946344,6.7180758,3.266219,1.5926688,25.741947,11.870993,18.476675,18.22421,-353.0,-70.0,-140.0,-313.0,2833.0,2778.0,0.06551421,1.5306237,0.78924006,0.66011906,-2.7640522,0.79954964,4.1688595,0.523243,1.3779742,-0.28699034,0.9144459,-0.5999362,-0.08634382,0.6444469,0.18585505,-0.42141443
81,-4.0,0.0,-1.0,-1.0,28.0,1000.0,1.1169024,1.0623085,1.1657752,0.7963677,2.3496442,3.712368,4.251169,1.3563265,2.1946344,6.9579988,3.676074,2.1914272,22.910189,10.297954,12.939021,12.790134,262.0,-35.0,17.0,-566.0,1321.0,596.0,-0.774036,0.8930551,0.783143,0.788982,-2.7640522,0.5332616,4.095915,0.5069384,1.4356092,-0.015593896,0.91407496,-0.8192602,-0.20746252,0.6444469,0.28283086,0.5742951
82,-5.0,0.0,-1.0,0.0,30.0,999.0,1.2347175,1.2133504,1.2281787,1.0470686,2.3127623,5.684944,5.594826,1.855051,2.9033885,7.6695533,4.8198996,2.3889508,18.17267,8.481114,9.441547,9.383001,365.0,35.0,51.0,-551.0,211.0,1216.0,-0.95849884,0.5892044,0.8080829,0.788982,-3.0753064,0.5332616,4.0718846,0.5069384,1.3779742,0.37804067,0.9206464,-0.5999362,-0.024885884,0.6797736,1.2736645,0.254838
83,-5.0,0.0,0.0,0.0,22.0,1001.0,1.1169024,1.8314093,1.5509864,2.163584,2.50152,8.72136,8.376676,5.925775,5.357635,9.577079,7.0076156,3.4921393,9.616471,6.512121,4.492637,4.6613693,352.0,77.0,59.0,-354.0,-156.0,1728.0,-0.95849884,0.5892044,0.7897148,0.788982,-2.6130366,0.40028092,4.0718846,0.55992734,1.3298384,0.11738434,0.91615796,-0.28676605,-0.14720464,0.5399956,1.0157061,-0.07694865
84,-5.0,0.0,1.0,-1.0,17.0,1005.0,2.1113656,3.964637,2.6844707,2.858772,3.2356772,10.295638,9.537246,6.7686224,6.390686,8.67396,8.474003,4.0191665,4.859781,4.8409615,2.5142007,2.5749655,348.0,87.0,45.0,-357.0,-269.0,2065.0,-0.86649245,0.5892044,0.7750686,0.69159395,-2.4650414,0.2010139,4.0479956,0.5069384,1.405584,0.5057741,0.91407496,-0.8192602,-0.024885884,0.5056839,0.92786545,-0.9626641
85,-7.0,-6.0,3.0,8.0,16.0,1012.0,3.730115,5.9578342,3.0726268,3.0336108,3.4317286,13.295012,12.027534,9.169162,6.824736,7.981592,8.766988,3.5957768,2.0070689,2.5700607,0.9988511,1.9110706,308.0,140.0,15.0,-180.0,-677.0,2391.0,-1.0499684,0.48315126,0.8199424,0.85634995,-3.2356255,0.2010139,4.0242467,0.49203193,1.4356092,-0.015593896,0.9144459,-0.8192602,0.099798664,0.43781045,0.7491641,-0.5985127
86,-99.0,9.0,9.0,-16.0,-34.0,1192.0,7.109461,11.019956,5.192123,6.0171804,6.1760893,26.23483,34.924786,21.398481,4.4365225,2.379787,2.7290587,-0.36728334,0.6222699,0.68309057,-0.28503552,1.1967388,235.0,79.0,-7.0,906.0,-1995.0,1482.0,-1.3202382,0.48315126,0.8199424,0.9256469,-3.0753064,0.13464636,3.9538326,0.5069384,1.405584,0.24858661,0.91407496,-0.5999362,0.42157438,0.43781045,1.4413807,0.09050758
87,-157.0,12.0,14.0,34.0,-73.0,1368.0,6.9548116,11.785392,6.6917405,8.44009,4.0210843,27.311258,36.40116,24.62893,1.6765945,2.013074,2.1153421,-0.11616254,0.74179983,0.5194591,-0.59939283,0.82150817,130.0,15.0,-26.0,1203.0,-3630.0,1597.0,-1.0499684,1.0846632,0.7980176,0.788982,-2.9181287,0.26740894,3.9538326,0.6018505,1.3527391,0.11738434,0.91407496,-0.38909772,0.9650231,0.751199,1.6060321,2.7263794
88,-228.0,17.0,30.0,101.0,-153.0,1481.0,6.009326,11.2375345,7.817135,11.039991,1.8994402,19.593073,24.835945,22.887247,1.4746094,1.527206,1.1748288,-0.05480285,0.45152625,0.29151344,-0.49379984,0.7764276,-98.0,-80.0,-12.0,973.0,-4312.0,1043.0,-0.86649245,0.8930551,0.783143,0.788982,-2.4650414,0.3338313,3.977166,0.523243,1.3779742,1.2375529,0.9274927,-0.088089146,2.4649816,1.4009615,10.556635,7.4068446
89,-308.0,-1.0,79.0,440.0,-334.0,1718.0,2.8281484,6.613696,7.6044064,13.658134,0.9487908,9.536073,10.064141,17.91103,1.3175522,0.63730115,1.0230237,0.06630566,0.92940825,0.7363365,-0.59939283,0.82150817,-244.0,-21.0,21.0,-211.0,583.0,1729.0,-0.774036,0.9898924,0.7735506,0.96101207,-2.0387714,0.40028092,4.0718846,0.45600685,1.3092324,2.3370907,1.0375441,-0.28676605,8.978564,4.802035,28.240526,23.068249
90,-421.0,-6.0,199.0,912.0,535.0,3166.0,0.3883432,1.0623085,1.5119236,0.4464872,-0.78185743,2.0761762,3.7194645,1.5756437,1.6104891,0.5387615,1.0555149,-0.11616254,0.50728446,0.23265727,-0.49379984,0.82150817,-233.0,-105.0,0.0,-187.0,117.0,2008.0,-0.49478763,0.9898924,0.7750686,1.1830697,-2.1779497,0.40028092,4.0718846,0.43368348,1.2329419,6.893622,1.2455392,0.37543488,22.320189,10.766995,23.9342,19.338543
91,34.0,94.0,-41.0,144.0,3115.0,134.0,0.18552329,0.91916835,0.91130126,-0.11327149,-0.7205044,1.5030082,3.2333996,0.5670702,1.7918508,0.27855557,1.1570392,-0.24055967,0.2913384,0.23265727,-0.38901776,0.82150817,-8.0,-5.0,0.0,-19.0,25.0,1015.0,0.5261351,1.0846632,0.7830491,1.0699425,1.2635258,4.385531,5.3375974,0.91622525,1.9224021,9.066606,3.4589937,3.5373461,22.47808,13.187046,14.488684,9.553555
92,339.0,105.0,-167.0,581.0,1310.0,1464.0,0.18552329,0.87324756,0.95407593,0.26464337,-0.8445332,1.3740072,3.0902352,0.65562785,2.0083463,0.3179901,1.1269534,-0.24055967,0.92940825,0.17301486,-0.28503552,1.1005566,-11.0,5.0,-2.0,-35.0,14.0,1008.0,4.2556195,4.863565,1.841129,1.2607844,2.7292354,8.056268,7.290952,3.6846623,2.7344742,8.762559,3.4589937,3.6219203,3.797476,3.2443125,2.0060406,3.8465579
93,357.0,-45.0,-64.0,786.0,850.0,605.0,0.115675956,0.87324756,0.9321551,1.0470686,-0.7205044,1.0479956,3.0902352,0.5670702,2.0083463,0.27855557,1.1570392,-0.30362397,0.19057897,0.112566754,-0.49379984,1.1005566,-12.0,-1.0,-4.0,-35.0,16.0,1000.0,4.814318,6.1997504,1.841129,1.340312,2.6934242,10.492574,8.249897,4.862376,2.510699,7.6830297,4.0906787,3.0627968,1.3945305,2.3592594,0.8390317,2.3735516
94,393.0,-65.0,-60.0,-40.0,198.0,1389.0,0.115675956,0.8282364,0.91130126,0.07808286,-0.90856284,1.3740072,3.0062442,0.41060627,1.7918508,0.24079579,1.1903547,-0.24055967,0.19057897,0.3496027,-0.38901776,1.1484545,-18.0,-8.0,-5.0,-41.0,5.0,1003.0,5.3249445,7.2706466,2.026358,1.8544017,2.9023707,10.822135,10.017934,7.451053,2.510699,6.6445236,4.0099845,2.2915606,0.6890105,1.5652046,0.3785097,1.3212451
95,391.0,-83.0,-72.0,88.0,148.0,1803.0,0.08343187,0.91916835,0.9321551,0.7105949,-0.90856284,0.98210907,3.0340843,0.45960155,2.0083463,0.27855557,1.2269567,-0.36728334,0.14204775,0.112566754,-0.38901776,1.1484545,-39.0,-14.0,-8.0,7.0,-26.0,1125.0,5.6385036,8.872175,2.4249265,3.2248878,3.0025,13.4259,13.927813,12.72003,2.403607,4.4142222,3.0830038,0.71459866,0.22680476,1.085563,0.3785097,0.09050758
96,275.0,-163.0,19.0,-647.0,-2474.0,3325.0,0.115675956,0.9659907,0.95407593,1.0470686,-0.54407275,1.3740072,3.1756516,0.45960155,1.8600168,0.27855557,1.1903547,-0.30362397,0.24034686,0.0512933,-0.38901776,0.7764276,-57.0,-3.0,-8.0,-23.0,-56.0,1084.0,5.7030454,8.453587,2.8551512,4.347576,2.8684406,14.257199,16.616753,15.552363,1.7584327,3.5773473,1.9004706,0.37543488,0.22680476,1.2410948,0.65822107,-0.9626641
97,146.0,-22.0,33.0,-1302.0,-4061.0,2001.0,0.14972906,0.87324756,0.95407593,0.96459174,-0.4325028,1.1136401,3.1470196,0.43469995,1.7918508,0.24079579,1.0230237,-0.24055967,0.19057897,-0.010825335,-0.18184212,1.8577907,-98.0,-9.0,-2.0,15.0,-112.0,1198.0,5.9031014,9.08585,4.092921,6.709104,3.454543,17.42888,18.691967,23.415375,1.2207155,2.1282513,1.282413,-0.28676605,0.55420226,0.57455915,0.8390317,-0.9626641
98,-159.0,80.0,-17.0,-829.0,-4351.0,987.0,0.14972906,0.91916835,0.95407593,0.53566635,-0.32549277,0.98210907,3.2044446,0.41060627,2.1731606,0.63730115,1.100041,-0.43155134,1.2634943,1.1897804,11.217472,8.85842,-142.0,-21.0,-5.0,-49.0,-177.0,1383.0,5.9724092,8.24876,5.622864,8.365515,2.084077,12.618812,12.826457,21.794048,1.2316191,1.0000433,0.97752035,-0.38909772,0.48761344,0.6093758,0.5661601,-0.9626641
99,-159.0,94.0,-84.0,210.0,932.0,1476.0,0.14972906,0.8282364,0.95407593,0.7105949,-0.54407275,0.9159696,3.062081,0.32253042,1.9321578,1.527206,1.0230237,-0.49644136,5.1737876,3.015906,28.554125,34.48101,-325.0,-71.0,-59.0,-340.0,-325.0,1910.0,5.2629223,6.2847457,7.8874106,7.672834,-1.0247353,4.109477,7.0380383,11.685258,1.3092324,-0.015593896,0.9173196,-0.088089146,0.75722075,0.3050226,0.65822107,-2.346532
100,-396.0,39.0,-2.0,-485.0,151.0,2412.0,0.115675956,0.8282364,0.95407593,0.6236984,-0.32549277,1.179053,2.9785597,0.30264163,1.6104891,3.386922,1.0765477,-0.24055967,23.56687,9.165528,29.126053,31.879122,134.0,-36.0,45.0,-760.0,1628.0,926.0,-0.3078242,0.9898924,0.78924006,0.75602806,-3.5658467,0.9995556,4.1688595,0.47855392,1.5405912,-0.015593896,0.91407496,-0.38909772,-0.14720464,0.6797736,0.4729377,0.88176733
101,0.0,0.0,0.0,-5.0,28.0,1015.0,0.6762685,1.0137068,1.1070321,1.1284728,1.6164753,3.2699814,3.8805258,0.9962451,1.8669722,5.8286023,3.4277787,2.6855364,27.458088,12.610601,21.886934,23.196068,229.0,17.0,32.0,-635.0,1293.0,490.0,-0.86649245,0.79405826,0.78924006,0.7235645,-2.7640522,0.5997927,4.0242467,0.55992734,1.6688238,0.24858661,0.91407496,-0.38909772,-0.20746252,0.6797736,0.92786545,0.09050758
102,1.0,-1.0,0.0,3.0,39.0,1005.0,0.83500034,1.1621382,1.2281787,1.9572018,1.8349859,3.395999,4.5354605,1.3563265,2.3752713,5.7471247,3.845287,2.9842904,23.402147,11.870993,16.856081,17.318178,297.0,47.0,37.0,-309.0,842.0,607.0,-0.6812132,0.5892044,0.783143,0.75602806,-3.0753064,0.40028092,4.0242467,0.54091585,1.5806947,-0.15037605,0.91407496,-0.5999362,-0.20746252,0.5399956,0.65822107,-0.07694865
103,-6.0,0.0,0.0,4.0,36.0,998.0,0.9453843,2.2739806,1.6313521,2.2306676,2.169281,7.2561083,7.385609,4.724304,3.7949698,7.5125446,4.6378765,3.33811,10.517517,6.3288674,5.152439,5.055165,336.0,89.0,52.0,-256.0,452.0,1046.0,-0.774036,0.5892044,0.8080829,0.69159395,-2.6130366,0.46675768,4.0242467,0.6018505,1.5405912,-0.5658293,0.9206464,-0.4934752,0.099798664,0.47162265,0.5661601,-0.42141443
104,-4.0,0.0,1.0,4.0,33.0,1003.0,1.6014339,2.7519214,2.4211004,2.6780214,2.6607947,10.12468,8.850307,6.7033014,4.8507957,7.981592,7.5935025,3.5957768,6.4875717,5.0957246,3.5737262,2.9226873,350.0,114.0,22.0,-117.0,144.0,1588.0,-0.86649245,0.79405826,0.7897148,0.7235645,-2.6130366,0.3338313,4.000637,0.55992734,1.4680909,-0.15037605,0.91615796,-0.5999362,0.29116505,0.5056839,0.5661601,-0.7789142
105,-4.0,-2.0,1.0,6.0,29.0,1004.0,2.4364145,4.4584274,3.303518,2.7389574,2.914748,10.641277,9.930192,8.694594,6.304013,8.059186,7.7891746,4.0731955,3.292532,4.1258044,1.910103,1.6480271,368.0,134.0,-7.0,42.0,28.0,2093.0,-0.86649245,0.48315126,0.8080829,0.7235645,-3.0753064,0.3338313,4.0479956,0.5069384,1.4680909,-0.15037605,0.9206464,-0.9321988,-0.08634382,0.43781045,0.4729377,-0.7789142
106,-5.0,-9.0,4.0,21.0,25.0,1013.0,4.1056147,6.330086,3.3621864,2.7992017,3.0036469,15.071168,11.949389,10.341899,7.085387,7.5911307,8.376242,3.9653978,1.059888,2.3259947,0.9988511,1.6480271,291.0,179.0,20.0,440.0,-1740.0,2653.0,-1.2309331,0.48315126,0.83362854,0.7235645,-2.7640522,0.13464636,3.977166,0.54091585,1.2607923,-0.28699034,0.91407496,-0.70851856,0.29116505,0.47162265,1.1025935,-1.5344609
107,-58.0,24.0,7.0,-3.0,-1.0,1098.0,6.7996836,10.480132,4.6017094,4.6050444,5.8706574,21.696321,27.680885,18.110785,6.2174077,3.3073988,4.368548,0.41770005,0.6222699,0.9433062,-0.59939283,1.1967388,120.0,92.0,102.0,1581.0,-3848.0,2168.0,-0.95849884,0.8930551,0.83362854,0.75602806,-2.4650414,0.26740894,4.0718846,0.5069384,1.2908818,0.11738434,0.9274927,-0.5999362,0.8259624,0.47162265,1.4413807,-1.1498079
108,-95.0,1.0,4.0,43.0,-12.0,1141.0,7.8317337,11.456018,5.72944,5.8705945,6.254022,28.69629,37.936657,23.40833,4.767274,2.606189,2.802883,-0.49644136,0.68147284,0.68309057,-0.59939283,0.86700326,-171.0,-23.0,102.0,413.0,-4674.0,1218.0,-0.86649245,0.5892044,0.8199424,0.788982,-2.4650414,0.26740894,4.0479956,0.6487849,1.3298384,0.8789219,0.9274927,-0.70851856,1.4678724,0.7872999,5.2725763,5.3647013
109,-235.0,13.0,20.0,27.0,-127.0,1494.0,6.3819923,11.785392,7.675235,11.441083,2.5801973,22.42076,29.566269,24.07804,2.0248818,1.395426,1.0765477,0.06630566,0.68147284,0.4635567,-0.59939283,0.82150817,-211.0,-68.0,70.0,77.0,411.0,1329.0,-1.0499684,0.8930551,0.783143,0.82242346,-2.4650414,0.40028092,4.095915,0.54091585,1.3298384,1.694365,0.9274927,0.19552408,3.9718328,1.8198502,20.395226,11.33996
110,-339.0,7.0,54.0,312.0,-292.0,1797.0,3.8561904,7.883076,7.3219337,13.569204,1.7715249,11.527074,12.264614,18.211493,1.9182317,1.0821,1.0765477,0.0060154353,1.1945887,0.40694413,-0.38901776,0.7764276,-331.0,-56.0,-5.0,143.0,-83.0,1952.0,-0.774036,0.79405826,0.7735506,0.82242346,-2.0387714,0.46675768,4.0718846,0.45600685,1.2316191,4.5714355,1.0876157,-0.4934752,14.059719,6.2442946,32.036568,28.623344
111,-444.0,0.0,190.0,873.0,597.0,3285.0,0.3883432,1.3183308,1.5509864,0.7105949,-0.54407275,3.081364,3.9462256,1.76005,1.5575138,0.49160206,1.0762466,0.18535511,0.5642031,0.40694413,-0.49379984,0.6875268,-144.0,-113.0,0.0,-206.0,59.0,1675.0,-0.58810455,1.1774578,0.7897148,0.75602806,-2.320026,0.40028092,4.0242467,0.46653515,1.2881961,7.3215666,1.3611367,1.1028469,23.761045,11.776812,24.574799,19.082026
112,-231.0,93.0,41.0,635.0,1649.0,190.0,0.18552329,0.91916835,0.9321551,-0.11327149,-0.7205044,1.5030082,3.1756516,0.59584934,1.5575138,0.40170717,1.1903547,-0.11616254,0.50728446,0.0512933,-0.38901776,1.0530491,-1.0,-1.0,0.0,-48.0,24.0,997.0,0.5261351,1.5306237,0.7783516,0.9256469,0.9224014,4.6628733,4.915522,0.81747633,1.516997,8.10198,3.2314227,3.6219203,19.718834,12.384691,14.067877,9.36176
113,393.0,114.0,-174.0,525.0,1684.0,1500.0,0.26207143,0.87324756,1.052079,0.53566635,-0.90856284,1.179053,3.1756516,0.48530015,1.8600168,0.3179901,1.1570392,-0.36728334,0.45152625,0.17301486,-0.38901776,0.6875268,-3.0,0.0,0.0,-46.0,21.0,999.0,0.7071733,1.9377016,0.7830491,0.82242346,0.99380946,5.4330654,5.6610923,1.0236912,1.4596487,7.8627467,3.3066435,3.7486942,16.032925,10.116069,8.5344925,7.451635
114,399.0,39.0,-53.0,969.0,717.0,846.0,0.115675956,0.9659907,0.95407593,0.7105949,-0.60164267,3.9033384,3.0062442,0.5670702,2.0083463,0.24079579,1.1570392,-0.43155134,0.68147284,0.23265727,-0.18184212,1.1967388,-10.0,2.0,-6.0,-54.0,13.0,1004.0,4.3373513,5.01096,1.6247147,1.2607844,2.3050687,8.207777,6.8743215,4.862376,1.9224021,7.6830297,3.8499825,3.6219203,2.8692758,4.566103,1.8478655,3.0580373
115,399.0,-101.0,-76.0,176.0,-20.0,1865.0,0.14972906,0.8282364,0.9770462,-0.016990552,-0.54407275,1.0479956,3.062081,0.511785,1.6671574,0.24079579,1.2669028,-0.17807701,0.68147284,0.112566754,-0.07942656,1.1967388,-15.0,-2.0,-8.0,-70.0,2.0,1017.0,5.1067677,5.7859716,1.6247147,1.8544017,2.5068724,10.005234,8.010716,6.312498,2.0566142,6.3910556,3.4589937,3.3244283,1.3945305,2.9893029,1.1885669,1.7356439
116,407.0,-110.0,-48.0,149.0,-29.0,2481.0,0.115675956,0.8282364,0.9770462,0.1719577,-0.54407275,1.3740072,3.1470196,0.43469995,2.0886557,0.3179901,1.1570392,-0.36728334,0.68147284,-0.010825335,-0.18184212,0.86700326,-37.0,-24.0,-11.0,-78.0,-18.0,1053.0,5.2629223,8.766424,1.886476,2.4791176,2.6571524,10.822135,10.562753,9.177317,2.403607,5.1714973,2.9374394,2.0722098,0.42157438,1.9509249,0.3785097,1.6002291
117,370.0,-135.0,-24.0,76.0,-806.0,2992.0,0.115675956,0.87324756,0.95407593,0.8810291,-0.66044307,1.179053,3.062081,0.5390452,1.8600168,0.3590551,1.2269567,-0.24055967,0.99411494,0.29151344,-0.38901776,0.95922124,-31.0,-41.0,-22.0,-102.0,-49.0,1107.0,5.44918,8.978653,2.2713938,3.566203,3.0025,12.618812,15.483918,14.071514,2.2493927,4.801627,2.1353674,0.87444043,0.35608995,1.085563,0.18585505,0.729508
118,262.0,-105.0,-1.0,-1028.0,-2515.0,2007.0,0.18552329,0.87324756,0.95407593,0.96459174,-0.27362347,1.1136401,3.1185477,0.36488646,1.8600168,0.24079579,1.1903547,-0.24055967,0.50728446,-0.010825335,-0.28503552,0.7764276,-77.0,-13.0,-25.0,-55.0,-67.0,1166.0,5.8351984,9.521703,3.5467043,5.3828464,2.7646146,15.898188,19.250067,22.18816,1.7584327,3.0287282,1.5852243,0.54836124,0.42157438,0.9717296,0.08753522,-0.7789142
119,172.0,-22.0,33.0,-1220.0,-3875.0,1981.0,0.14972906,0.87324756,0.95407593,1.0470686,-0.2228055,1.4385979,3.0902352,0.48530015,1.8600168,0.27855557,1.2269567,-0.24055967,0.09476646,0.0512933,-0.49379984,1.1484545,-385.0,-69.0,-118.0,-588.0,-313.0,1949.0,4.711305,5.3130264,6.545492,6.564803,-1.5102179,3.4243383,7.420798,13.341604,1.3092324,-0.015593896,0.91407496,-0.088089146,0.75722075,0.7153573,0.3785097,-1.7320627
120,-189.0,152.0,21.0,-24.0,135.0,1142.0,0.18552329,0.8282364,0.9321551,0.1719577,-0.27362347,1.0479956,3.0340843,0.41060627,2.0886557,1.0224552,1.037792,-0.36728334,2.931179,1.8670038,19.043232,17.2195,-458.0,30.0,-162.0,-311.0,-440.0,2505.0,4.6045194,3.7509308,3.7265341,1.1830697,-1.3849128,2.5424585,6.0752697,7.641234,1.3092324,0.24858661,0.9206464,0.19552408,0.037163474,0.5056839,0.28283086,-1.9332438
121,-350.0,45.0,-15.0,180.0,-62.0,1973.0,0.14972906,0.87324756,1.0010482,0.6236984,-0.07636962,0.9159696,3.0062442,0.32253042,1.7918508,1.5943552,0.9924446,-0.49644136,16.076376,6.0317235,25.744164,30.56841,337.0,68.0,-3.0,-71.0,819.0,972.0,-0.86649245,0.79405826,0.7980176,0.66011906,-2.6130366,0.7329366,4.0718846,0.523243,1.405584,-0.15037605,0.9144459,-0.70851856,-0.024885884,0.5056839,1.0157061,-0.24757458
122,0.0,2.0,-1.0,-19.0,14.0,1030.0,0.88976693,0.9659907,1.052079,1.3663871,1.4350413,3.081364,3.9793532,1.2311249,1.5503165,5.420509,3.346585,2.0429382,24.897951,12.704748,22.322844,23.446665,367.0,93.0,0.0,25.0,391.0,1279.0,-1.2309331,0.48315126,0.7897148,0.69159395,-2.7640522,0.26740894,4.0479956,0.523243,1.4680909,-0.015593896,0.91407496,-0.9321988,0.037163474,0.47162265,0.65822107,-0.42141443
123,1.0,-1.0,0.0,-7.0,30.0,1006.0,1.1169024,1.1621382,1.135938,1.7427802,1.3451942,3.967221,4.147806,1.5756437,1.8171399,4.9293118,3.0303478,2.2408373,25.572403,12.704748,20.219763,19.920944,380.0,122.0,-12.0,71.0,188.0,1740.0,-1.0499684,0.692807,0.8080829,0.66011906,-2.7640522,0.26740894,4.0479956,0.5802484,1.3779742,-0.015593896,0.91615796,-0.5999362,0.16301422,0.57455915,0.4729377,-0.5985127
124,-6.0,-2.0,0.0,-9.0,24.0,1002.0,2.3060787,3.8842988,3.303518,2.858772,2.0317552,8.403997,8.6702,8.224057,4.1119967,5.9912996,6.3287516,4.292041,3.477988,4.741481,2.598446,1.8048427,382.0,134.0,-11.0,49.0,-27.0,2238.0,-1.3202382,0.8930551,0.84917384,0.69159395,-2.9181287,0.7329366,4.0242467,0.54091585,1.3092324,-0.28699034,0.91615796,-0.5999362,0.099798664,0.37092736,0.8390317,-0.9626641
125,-39.0,31.0,3.0,6.0,-1.0,1055.0,5.7376695,9.106727,4.281402,5.39457,3.908314,20.282745,24.09534,19.57373,3.411361,2.606189,3.9309268,1.3372244,0.50728446,0.57467,-0.28503552,1.1484545,346.0,144.0,35.0,-216.0,-511.0,2598.0,-1.1408108,0.37454644,0.83362854,0.6291427,-3.2356255,0.3338313,4.0242467,0.55992734,1.4356092,-0.15037605,0.9206464,-0.70851856,0.35608995,0.5056839,0.5661601,-1.1498079
126,-414.0,71.0,175.0,348.0,-803.0,3151.0,1.2347175,2.4070313,2.4727764,2.6163769,-0.27362347,3.8395724,4.7572093,6.183588,1.1857711,1.0224552,1.0575255,0.3024515,0.8032392,0.84098905,-0.38901776,0.7764276,307.0,186.0,77.0,-100.0,-1516.0,2654.0,-1.0499684,0.79405826,0.77827114,0.66011906,-3.0753064,0.068306506,4.0718846,0.5802484,1.3298384,0.24858661,0.9144459,-0.9321988,0.62133616,0.47162265,0.65822107,-0.9626641
127,-379.0,12.0,221.0,1391.0,729.0,3363.0,0.3026972,0.9659907,1.2281787,0.07808286,-0.90856284,45.16922,3.7194645,2.3554626,1.6104891,0.5387615,1.0021396,-0.17807701,0.74179983,0.29151344,-0.28503552,0.6875268,-240.0,-145.0,37.0,336.0,-1476.0,867.0,-1.1408108,0.9898924,0.77350503,0.96101207,-3.0753064,0.40028092,4.0718846,0.49203193,1.3298384,2.3370907,0.93664944,-0.088089146,4.5953608,2.0845134,20.277752,12.002495
128,372.0,-117.0,-61.0,-118.0,286.0,1325.0,0.18552329,0.87324756,1.0260649,-0.11327149,-0.78185743,1.5672483,3.062081,0.5390452,2.0886557,0.40170717,1.1570392,-0.17807701,0.74179983,0.17301486,0.022221994,1.1484545,-3.0,-6.0,0.0,-34.0,8.0,1013.0,0.06551421,1.7789066,0.7783516,0.9256469,0.84932375,4.109477,4.9737105,1.0613413,1.6475185,7.6830297,3.0830038,4.04695,21.538916,13.643092,18.88789,11.270046
129,378.0,-134.0,-54.0,-31.0,182.0,1859.0,0.115675956,0.9659907,1.052079,-0.2107684,-0.90856284,1.1136401,3.062081,0.5390452,1.9321578,0.3179901,1.1570392,-0.11616254,0.24034686,0.112566754,-0.07942656,1.0059359,-4.0,1.0,0.0,-29.0,26.0,1006.0,2.2747612,3.0147302,0.8892476,1.0331625,1.3271693,5.151636,6.0041933,2.6224856,1.8797586,8.10198,3.5360787,4.0901203,12.558055,8.565481,6.276805,6.744086
130,386.0,-155.0,-40.0,-98.0,-22.0,2632.0,0.115675956,0.8282364,1.0260649,0.07808286,-0.90856284,1.5672483,3.1185477,0.43469995,2.0083463,0.3179901,1.1269534,-0.24055967,0.5642031,0.23265727,-0.28503552,0.7764276,-159.0,-17.0,-18.0,48.0,-79.0,1376.0,5.480401,9.08585,4.154771,8.209818,1.5677431,13.517047,18.257162,29.577047,1.2223802,2.1282513,0.9954594,-0.5999362,0.6890105,0.6444469,0.28283086,-1.3403915
131,98.0,-29.0,-6.0,-954.0,-4116.0,1638.0,0.115675956,0.91916835,0.91130126,0.07808286,-0.2228055,1.3740072,3.1470196,0.511785,1.9321578,0.40170717,1.0762466,-0.30362397,0.09476646,0.23265727,0.123114325,1.5452119,-234.0,-33.0,-32.0,-237.0,-196.0,1782.0,4.9141626,6.4570227,5.1683927,9.729081,-0.07612673,6.2160707,9.95916,23.839785,1.2489771,0.5057741,0.9480702,-0.38909772,1.106159,0.7872999,-0.21597317,-1.5344609
132,-374.0,40.0,-18.0,106.0,156.0,2405.0,0.26207143,0.8282364,0.9770462,1.0470686,-0.3784427,0.8495664,3.0902352,0.38733146,1.7918508,2.4547694,1.0049974,-0.17807701,24.396019,8.781037,23.219362,25.676218,157.0,-20.0,112.0,-646.0,1601.0,777.0,-0.58810455,0.692807,0.8059905,0.7235645,-3.0753064,1.1330345,4.1444016,0.49203193,1.405584,0.5057741,0.91615796,-0.9321988,-0.08634382,0.6093758,0.28283086,0.254838
133,0.0,0.0,0.0,-16.0,10.0,1014.0,0.9453843,0.9659907,1.052079,1.6694453,1.867082,3.3329585,4.079858,0.922828,2.0248818,4.847407,3.266219,2.141981,26.5953,11.962111,20.523449,21.273487,272.0,21.0,47.0,-452.0,1298.0,649.0,-0.95849884,0.79405826,0.8199424,0.69159395,-2.7640522,0.66635096,4.0479956,0.54091585,1.5405912,-0.015593896,0.9144459,-0.70851856,-0.14720464,0.5056839,0.28283086,0.09050758
134,-1.0,0.0,-1.0,0.0,26.0,999.0,1.2347175,1.2654171,1.1657752,1.6694453,1.8031381,4.4181094,5.223736,2.8375487,2.2536836,4.6836505,3.7603283,2.6855364,20.975437,9.480735,12.644891,13.723911,334.0,43.0,12.0,-256.0,737.0,842.0,-0.95849884,0.692807,0.7750686,0.66011906,-3.0753064,0.40028092,3.9538326,0.5069384,1.4680909,-0.28699034,0.9144459,-0.5999362,-0.08634382,0.5399956,1.7678958,-0.07694865
135,-4.0,0.0,0.0,1.0,20.0,1001.0,2.046764,3.1879394,2.0273232,2.3623683,1.9982185,8.091436,8.318953,6.3130236,4.273404,7.27582,6.6188374,3.7528043,10.517517,6.208776,4.7886252,5.793586,362.0,75.0,46.0,-204.0,342.0,1274.0,-0.95849884,0.79405826,0.8080829,0.69159395,-2.7640522,0.7329366,4.000637,0.54091585,1.4356092,-0.28699034,0.9206464,-0.8192602,0.037163474,0.57455915,0.28283086,0.09050758
136,-5.0,-1.0,0.0,-1.0,17.0,1004.0,2.501676,4.127018,2.9036698,2.6163769,2.4246933,10.728462,9.282533,7.823681,4.6840677,7.27582,7.691327,3.858618,5.601664,4.8409615,3.3357117,2.8056846,372.0,103.0,36.0,-119.0,54.0,1849.0,-1.0499684,0.8930551,0.7897148,0.69159395,-3.2356255,0.66635096,4.0479956,0.523243,1.4356092,-0.15037605,0.9206464,-0.8192602,0.35608995,0.5056839,1.2736645,-0.42141443
137,-7.0,-4.0,1.0,5.0,13.0,1009.0,3.7932613,5.5024543,3.6003995,3.2030063,3.0947585,13.584244,10.90017,9.855141,5.614027,6.476911,8.180614,3.5957768,2.0070689,3.1385634,0.9988511,1.2944504,347.0,149.0,6.0,-334.0,-434.0,2662.0,-1.3202382,0.79405826,0.8199424,0.7235645,-3.2356255,0.2010139,4.0718846,0.6740619,1.405584,-0.15037605,0.9206464,-0.8192602,0.22680476,0.43781045,0.8390317,-1.1498079
138,-39.0,25.0,6.0,15.0,-4.0,1025.0,6.11664,9.419541,4.731459,4.51152,4.1950126,19.821718,22.813488,16.026001,4.9346166,2.606189,4.8198996,1.2335603,0.86577916,0.62920773,-0.38901776,1.4943345,378.0,130.0,32.0,236.0,-2078.0,4543.0,-1.2309331,0.37454644,0.8199424,0.788982,-2.9181287,0.13464636,4.0242467,0.5802484,1.2747478,0.24858661,0.9144459,-0.8192602,0.42157438,0.43781045,0.28283086,-0.7789142
139,-82.0,8.0,7.0,-14.0,-11.0,1313.0,7.4697533,11.89561,5.5941386,6.0665164,5.7958846,25.444824,33.30698,21.639114,3.6396985,1.6623048,2.3091314,-0.24055967,0.74179983,0.40694413,-0.38901776,0.95922124,248.0,183.0,68.0,548.0,-2565.0,2209.0,-1.1408108,0.5892044,0.783143,0.82242346,-2.7640522,0.068306506,4.0718846,0.6487849,1.2747478,0.24858661,0.9173196,-0.8192602,0.6890105,0.47162265,0.18585505,-0.9626641
140,-132.0,8.0,9.0,9.0,-49.0,1288.0,8.519098,13.572577,6.0702386,7.8135056,4.68714,30.274689,41.194576,27.44095,1.7219117,1.6623048,1.5139934,-0.11616254,0.5642031,0.57467,-0.49379984,0.82150817,44.0,-30.0,80.0,1225.0,-4339.0,1823.0,-0.86649245,0.692807,0.7897148,0.82242346,-2.4650414,0.26740894,4.1200867,0.55992734,1.3298384,1.0000433,0.9274927,-0.5999362,1.4678724,0.751199,2.0060406,3.5664854
141,-465.0,-48.0,175.0,569.0,-682.0,2553.0,1.6641189,2.7519214,2.9036698,3.4745047,0.5075599,6.0311933,6.44255,8.829755,1.1613643,1.2045084,1.1213392,0.7533995,1.5492356,0.8924309,-0.28503552,0.60033345,-212.0,-87.0,49.0,814.0,-4105.0,991.0,-1.0499684,0.8930551,0.7735506,1.0699425,-2.1779497,0.3338313,4.0479956,0.49203193,1.3779742,1.694365,0.9480702,0.46275258,3.797476,1.6489786,15.126597,8.044449
142,-437.0,25.0,171.0,739.0,-612.0,3318.0,0.5269141,1.4266679,1.5119236,0.8810291,-0.3784427,3.395999,4.3917203,3.2870903,1.3134402,0.7950735,0.9924446,-0.43155134,1.1267163,0.29151344,-0.49379984,0.64371467,-280.0,-129.0,-9.0,34.0,59.0,2155.0,-0.6812132,0.8930551,0.77827114,0.82242346,-2.6130366,0.26740894,4.000637,0.45600685,1.2209738,6.6445236,1.2103754,0.37543488,21.538916,9.404809,25.48984,21.21106
143,-255.0,28.0,185.0,1048.0,2068.0,2420.0,0.115675956,0.91916835,0.95407593,-0.016990552,-0.8445332,3.018574,3.2044446,1.0721513,1.5575138,0.49160206,1.100041,-0.05480285,0.2913384,0.112566754,-0.18184212,1.0059359,-33.0,-43.0,11.0,-56.0,31.0,1329.0,0.06551421,0.8930551,0.7897148,1.0331625,-0.3714619,0.9995556,4.0718846,0.47855392,2.0566142,8.581551,2.0749316,2.183575,22.95505,12.7383795,23.05398,15.363222
144,297.0,85.0,-164.0,596.0,2673.0,27.0,0.18552329,0.91916835,0.9321551,-0.11327149,-0.60164267,1.8862287,3.2625175,0.8175403,1.6104891,0.49160206,1.1903547,-0.24055967,0.19057897,0.3496027,0.22326112,0.60033345,-4.0,1.0,0.0,-18.0,30.0,1004.0,1.5713685,2.2417529,0.8164951,1.1448987,1.6245738,5.5036826,6.2935867,2.454258,1.7584327,8.702122,3.6919596,4.0901203,14.316561,9.560952,7.2496543,6.5719113
145,337.0,60.0,-145.0,714.0,749.0,1054.0,0.115675956,0.87324756,1.0010482,0.26464337,-0.90856284,2.2023566,3.291799,0.8175403,1.8600168,0.3590551,1.1903547,-0.49644136,0.14204775,-0.07380916,0.123114325,0.7764276,-8.0,5.0,0.0,-26.0,30.0,1009.0,2.4914122,3.4169607,1.186192,1.1071887,1.8906882,6.432157,6.714413,3.6846623,2.6773777,10.00564,3.7707136,3.9611235,9.638717,6.1785717,3.2125845,5.24901
146,369.0,-71.0,-36.0,345.0,654.0,810.0,0.14972906,0.91916835,1.0790735,-0.11327149,-0.90856284,4.2885704,3.2333996,0.65562785,1.508163,0.3179901,1.2269567,-0.36728334,0.6222699,0.0512933,0.123114325,0.86700326,-11.0,5.0,-3.0,-29.0,27.0,993.0,3.0240164,4.088737,1.3537469,1.0699425,2.4678545,7.605852,7.464591,4.1762185,2.6773777,9.498961,3.8499825,3.3672721,4.9608474,3.7754433,2.3161838,2.8392339
147,406.0,-37.0,-30.0,-91.0,299.0,1229.0,0.115675956,0.87324756,1.0260649,0.1719577,-0.78185743,1.4385979,3.1185477,0.45960155,1.9321578,0.3590551,1.2269567,-0.43155134,0.50728446,0.0512933,0.022221994,0.95922124,-10.0,2.0,-5.0,-46.0,21.0,1002.0,4.296813,5.2365623,1.9324735,1.3807492,2.6571524,9.210634,7.6874666,4.9251356,2.6773777,9.00552,4.666749,3.3244283,2.3064318,2.9893029,2.3161838,2.4935765
148,380.0,-89.0,-42.0,141.0,-30.0,1573.0,0.08343187,0.87324756,1.052079,-0.11327149,-0.7205044,0.9159696,3.062081,0.38733146,1.7275879,0.3590551,1.1903547,-0.43155134,0.39694083,0.17301486,0.022221994,1.0059359,-13.0,-2.0,-7.0,-39.0,9.0,1005.0,5.043406,6.901229,1.6665663,1.7644256,2.9693742,10.410774,9.117821,5.744007,3.2164066,8.702122,5.3437295,3.0627968,0.8952313,2.2206228,1.2736645,2.4935765
149,374.0,-109.0,-43.0,167.0,-47.0,2114.0,0.18552329,0.8282364,1.0260649,0.07808286,-0.90856284,1.179053,3.0902352,0.48530015,1.8600168,0.27855557,1.1570392,-0.24055967,0.34354064,0.17301486,-0.18184212,0.82150817,-23.0,-12.0,-11.0,-56.0,0.0,1030.0,4.9468446,8.350797,1.841129,1.9000177,2.9360063,11.155575,10.439177,7.5778165,2.792309,6.707174,4.666749,2.183575,0.42157438,2.039704,0.4729377,2.7263794
150,355.0,-154.0,26.0,470.0,-474.0,2584.0,0.14972906,0.8282364,1.1657752,-0.11327149,-0.48770285,0.9159696,3.1185477,0.41060627,1.9321578,0.27855557,1.1570392,-0.30362397,0.50728446,-0.07380916,-0.07942656,0.73176587,-34.0,-23.0,-19.0,-100.0,-28.0,1017.0,5.7685614,9.521703,1.979106,2.3786235,3.0025,12.006949,12.164878,9.047753,3.3432806,5.526054,4.0099845,1.6521019,0.099798664,1.2410948,0.18585505,0.88176733
151,291.0,-252.0,109.0,138.0,-1267.0,2763.0,0.18552329,0.9659907,0.9770462,0.07808286,-0.48770285,1.4385979,3.2044446,0.45960155,1.7918508,0.3179901,1.1570392,-0.11616254,0.45152625,0.112566754,0.022221994,0.6875268,-39.0,-9.0,-38.0,-98.0,-61.0,1196.0,6.344574,9.08585,2.2212644,3.3372586,3.0025,12.530571,14.092687,12.568295,2.510699,4.1723957,3.382508,1.0281774,0.29116505,1.085563,1.1885669,1.1775941
152,213.0,-186.0,98.0,-1327.0,-2048.0,2109.0,0.115675956,0.91916835,0.95407593,0.07808286,-0.3784427,1.2442449,3.1756516,0.5390452,1.7918508,0.3179901,1.1570392,-0.24055967,0.19057897,0.23265727,-0.18184212,0.7764276,-150.0,-8.0,-21.0,-42.0,-145.0,1449.0,5.9724092,8.24876,5.297684,7.446526,2.084077,12.267524,12.093508,16.205894,1.2260028,1.2375529,0.9954594,-0.4934752,0.62133616,0.57455915,0.4729377,-1.3403915
153,-129.0,223.0,32.0,-1775.0,-3129.0,841.0,0.115675956,0.7841428,0.91130126,0.35614976,-0.17300975,1.2442449,3.1185477,0.5670702,2.0083463,1.3308556,1.0111572,-0.43155134,3.3848681,1.2849917,9.778246,6.3430276,-229.0,-1.0,-54.0,-321.0,-198.0,1701.0,5.3559475,6.6323757,6.4790845,7.748783,0.28769568,5.7161875,6.4434724,10.705263,1.2207155,0.5057741,0.961709,0.0083313575,0.75722075,0.6797736,-0.21597317,-1.5344609
154,-214.0,154.0,-25.0,-89.0,112.0,2036.0,0.115675956,0.7841428,0.9770462,0.7963677,0.19197413,1.3740072,3.0902352,0.34328243,1.6328622,5.011221,1.2706093,0.06630566,25.741947,9.010458,23.914433,25.676218,-342.0,-14.0,-98.0,-520.0,-327.0,2058.0,5.2318606,5.7054057,6.545492,4.7908835,-1.638215,3.2200294,4.8580136,6.565307,1.3092324,0.11738434,0.9173196,-0.4934752,1.0353336,0.6444469,0.4729377,-1.9332438
155,-31.0,31.0,-14.0,-43.0,7.0,1230.0,0.7282036,0.87324756,1.0260649,1.1284728,1.5859643,2.7049298,3.1470196,0.59584934,2.5012906,5.420509,2.3762283,1.5926688,25.40323,10.981186,22.213114,22.579815,-417.0,23.0,-147.0,-507.0,-279.0,2636.0,5.169527,3.0147302,2.2713938,0.9256469,-2.320026,1.8022515,4.3441553,3.9294138,1.5030708,2.3370907,0.93664944,0.19552408,-0.08634382,0.7153573,0.18585505,-1.7320627
156,0.0,1.0,-6.0,-24.0,6.0,1017.0,0.88976693,1.1621382,1.1070321,3.5273352,2.065618,4.5482774,4.9477863,2.0008655,2.3752713,4.6836505,3.0303478,2.8345199,24.73027,11.421194,20.119408,18.533676,150.0,-109.0,100.0,-704.0,1467.0,630.0,-0.58810455,1.1774578,0.8164951,0.7235645,-3.3991258,0.5332616,4.0479956,0.62470526,1.5030708,-0.15037605,0.9206464,-0.5999362,-0.024885884,0.6444469,0.4729377,1.3212451
157,0.0,0.0,-1.0,-2.0,23.0,1002.0,1.001808,1.4820763,1.2941169,3.2583425,2.065618,4.8766885,5.6372266,3.7531648,1.8171399,4.1935925,2.5139832,2.934265,20.184898,9.721544,15.260308,12.457738,264.0,-63.0,0.0,-337.0,1054.0,503.0,-1.1408108,0.692807,0.78924006,0.69159395,-2.6130366,0.5332616,4.000637,0.55992734,1.5405912,-0.15037605,0.91407496,-0.28676605,-0.14720464,0.6093758,0.28283086,0.09050758
158,-3.0,0.0,0.0,0.0,25.0,997.0,1.2945465,2.4746215,2.9036698,3.4745047,1.8994402,6.1713905,6.2106338,7.2279506,2.5658805,3.7880456,4.4578032,2.537097,8.987327,5.7447386,6.622616,7.399308,324.0,-16.0,38.0,-362.0,738.0,727.0,-1.2309331,0.9898924,0.7735506,0.69159395,-2.320026,0.40028092,4.0242467,0.62470526,1.5806947,-0.15037605,0.91407496,-0.8192602,-0.14720464,0.6093758,0.5661601,-0.07694865
159,0.0,0.0,0.0,1.0,22.0,1001.0,0.78113025,2.7519214,2.4211004,4.0336776,1.5253175,6.1713905,6.029727,7.2279506,2.3752713,4.3566513,6.136271,4.0191665,8.1276865,7.01932,7.098086,9.082333,354.0,19.0,117.0,-398.0,260.0,1223.0,-1.1408108,0.5892044,0.8080829,0.7235645,-2.4650414,0.46675768,4.0718846,0.5802484,1.5405912,0.24858661,0.91615796,-0.5999362,-0.08634382,0.5399956,0.4729377,-0.07694865
160,0.0,0.0,0.0,0.0,21.0,1001.0,1.1754899,2.5429127,2.5249617,4.275169,1.4951494,5.961464,6.074574,8.090306,2.2536836,4.275075,3.9309268,4.2369084,8.1276865,7.283138,7.0304646,7.8309813,212.0,87.0,348.0,-1076.0,-1574.0,1859.0,-1.1408108,0.48315126,0.8080829,0.82242346,-2.7640522,0.13464636,4.0242467,0.5802484,1.2908818,0.8789219,0.9206464,-0.70851856,0.48761344,0.5399956,0.4729377,-0.9626641
161,-2.0,-1.0,1.0,4.0,19.0,1006.0,1.5391406,4.2090483,2.7931712,5.347777,1.8031381,8.24712,6.97625,10.271994,3.1890934,3.8688605,5.6590843,5.9717765,3.761971,5.4676485,4.191793,3.5231135,115.0,47.0,299.0,-1210.0,-2396.0,1673.0,-1.1408108,0.79405826,0.8080829,0.82242346,-2.9181287,0.2010139,4.0718846,0.5069384,1.405584,-0.015593896,0.91615796,-0.70851856,1.0353336,0.6444469,0.8390317,-0.9626641
162,-4.0,-4.0,4.0,14.0,18.0,1020.0,1.727164,4.971449,2.9036698,6.317114,1.8349859,9.206512,8.091269,10.411935,2.6314816,3.2281487,5.282478,5.278021,1.2634943,3.3869023,2.8482897,1.5452119,4.0,130.0,142.0,-1607.0,-2995.0,920.0,-1.1408108,0.5892044,0.7980176,0.85634995,-2.6130366,0.46675768,4.095915,0.62470526,1.3298384,0.63181406,0.9206464,-0.38909772,1.5417067,0.6093758,0.8390317,-0.24757458
163,-26.0,32.0,19.0,126.0,-12.0,1064.0,2.5669734,5.6832447,3.6607985,7.3418326,1.9320737,9.702701,10.544974,12.13965,1.7219117,2.085243,3.4277787,2.7351248,0.86577916,1.7374675,-0.18184212,1.0059359,-83.0,119.0,105.0,-544.0,-1892.0,967.0,-1.0499684,0.79405826,0.8080829,0.89075863,-2.1779497,0.46675768,4.1200867,0.5802484,1.3779742,1.2375529,0.93664944,-0.4934752,1.5417067,1.0473517,5.1219864,6.0010195
164,-131.0,24.0,227.0,783.0,-171.0,1467.0,2.6322873,5.0587335,3.6003995,10.040742,0.5803147,8.169129,10.685859,15.583694,1.2358999,1.2672058,1.0408128,0.12608112,0.6222699,0.68309057,-0.49379984,1.7522303,-140.0,181.0,134.0,-175.0,1415.0,839.0,-0.6812132,0.8930551,0.78924006,0.9256469,-2.320026,0.5997927,4.193462,0.5802484,1.405584,1.1195782,0.93664944,0.0083313575,3.884442,2.5004272,25.88898,16.334606
165,-215.0,59.0,349.0,969.0,-34.0,1773.0,0.5755724,2.079835,2.2197025,7.004487,-0.17300975,3.9033384,6.5848546,13.046499,1.3134402,0.5873412,1.0111572,-0.05480285,0.39694083,0.62920773,-0.07942656,1.8577907,-9.0,-24.0,-16.0,-25.0,51.0,1317.0,-0.3078242,1.0846632,0.8199424,1.0699425,-0.6872919,0.40028092,4.1200867,0.46653515,1.5476893,9.127845,1.6344278,1.3184868,23.11514,10.196468,31.556274,18.577335
166,-68.0,-93.0,340.0,1241.0,936.0,871.0,0.34480792,0.91916835,0.95407593,0.7105949,-0.66044307,1.4385979,3.291799,0.922828,1.7275879,0.40170717,1.1570392,-0.36728334,0.50728446,0.5194591,0.5193339,1.4438157,-7.0,-1.0,-21.0,27.0,59.0,1008.0,-0.21431808,1.2683654,0.783143,1.0331625,1.6801536,2.677582,4.1444016,0.78660965,2.8508651,11.002996,2.519852,2.396417,25.414919,10.932498,23.55468,13.41923
167,-51.0,-187.0,137.0,627.0,952.0,836.0,0.22299235,0.87324756,0.91130126,1.0470686,-0.78185743,1.1136401,3.291799,0.922828,1.7918508,0.3590551,1.0762466,-0.24055967,0.50728446,0.40694413,0.022221994,1.6480271,-7.0,4.0,1.0,-4.0,43.0,1009.0,2.125266,1.9377016,0.82838345,1.0699425,2.9360063,6.649426,6.219956,1.6709037,5.16553,14.68516,4.666749,3.6641688,18.403727,7.687269,7.1667533,7.0924263
168,4.0,-231.0,61.0,-352.0,1362.0,964.0,0.22299235,0.87324756,0.91130126,0.6236984,-0.4325028,1.5672483,3.1756516,1.0721513,1.5575138,0.3590551,1.100041,-0.24055967,0.34354064,0.17301486,-0.28503552,1.9110706,-12.0,6.0,15.0,37.0,26.0,1005.0,3.3238995,3.4836578,1.186192,0.96101207,3.3259125,8.359998,7.1213527,3.0849476,5.2405643,14.074777,4.5003333,3.5796535,12.558055,5.789973,3.2858672,5.7305064
169,51.0,-191.0,158.0,-1274.0,1418.0,1015.0,0.18552329,0.87324756,0.91130126,0.53566635,-0.2228055,1.6313276,3.2625175,0.9962451,1.508163,0.27855557,1.100041,0.12608112,0.39694083,0.0512933,0.022221994,1.8577907,-17.0,-1.0,110.0,369.0,88.0,1031.0,5.293943,7.3649597,1.5432782,1.2216991,3.9973845,13.792298,10.562753,6.8181944,6.005059,9.624248,3.8499825,1.7152687,3.2007153,1.7767159,0.8390317,1.7356439
170,128.0,-100.0,277.0,-508.0,960.0,1095.0,0.08343187,0.91916835,0.91130126,0.35614976,-0.32549277,1.1136401,3.2625175,0.8175403,1.7275879,0.49160206,0.9935302,-0.17807701,0.50728446,0.112566754,0.322673,1.1005566,-41.0,14.0,130.0,74.0,57.0,1018.0,5.4180446,8.453587,1.4649823,1.5047237,4.3811865,17.42888,13.054885,8.532964,5.9275537,7.562917,3.2314227,1.0281774,1.6160301,1.2410948,0.65822107,1.6002291
171,127.0,-117.0,172.0,-976.0,758.0,1373.0,0.14972906,0.87324756,0.9321551,0.53566635,-0.2228055,1.3092263,3.2333996,0.85197794,1.4623692,0.3590551,1.0021396,-0.17807701,0.45152625,0.17301486,0.5193339,1.6999571,-16.0,-15.0,42.0,-563.0,-26.0,938.0,6.227955,10.425773,1.5836129,3.3372586,4.678848,20.748388,19.708519,14.925231,5.391462,5.2435646,3.0830038,1.247966,0.9650231,1.1240422,0.5661601,-0.07694865
172,47.0,29.0,149.0,-727.0,-477.0,1252.0,0.18552329,0.87324756,0.9321551,0.35614976,-0.07636962,1.3740072,3.3508573,1.0338919,1.5575138,0.49160206,0.9924446,0.24414083,0.5642031,0.29151344,0.9988511,2.072863,-11.0,-22.0,1.0,-296.0,-44.0,1024.0,6.115775,9.19376,2.4249265,3.8006434,4.1837583,20.631796,20.17789,19.119059,4.010088,4.6488976,2.519852,1.3184868,0.55420226,1.16279,0.5661601,-0.24757458
173,0.0,90.0,130.0,-1253.0,-1108.0,1135.0,0.115675956,0.91916835,0.91130126,0.07808286,-0.54407275,1.3740072,3.3212454,1.1110138,1.5575138,0.49160206,1.100041,0.06630566,1.1267163,0.78896344,2.344213,2.4613025,-38.0,-21.0,-1.0,-5.0,-56.0,1064.0,5.8351984,8.453587,3.487312,5.517648,2.6934242,16.806871,20.29697,27.036785,1.4330477,1.9140744,1.4462426,0.28637108,0.75722075,0.8602836,-0.11332944,-0.9626641
174,-81.0,14.0,-16.0,534.0,25.0,1439.0,0.22299235,0.8282364,0.91130126,-0.016990552,-0.2228055,1.179053,3.2333996,0.922828,1.6671574,2.1580234,0.99799067,0.0060154353,11.7091675,5.3595133,20.934608,22.701912,-101.0,-43.0,-8.0,-62.0,-154.0,1216.0,5.44918,6.7212143,4.7199516,9.483266,0.017956518,6.8679295,10.017934,31.210667,1.3092324,0.63181406,0.9480702,0.0083313575,-0.024885884,0.6444469,-0.0121766245,-1.5344609
175,-56.0,28.0,-6.0,37.0,58.0,1026.0,0.14972906,0.87324756,0.9321551,0.26464337,0.27496618,1.1136401,3.291799,0.9592206,1.2162255,3.1491895,1.4255674,0.3024515,17.868671,7.691746,24.995834,29.001234,-309.0,-186.0,-7.0,207.0,-283.0,2147.0,3.8521726,2.8103027,4.2790823,3.9198847,-2.320026,3.2880745,5.8301196,12.2689085,1.3298384,0.11738434,0.93664944,-0.088089146,1.4678724,0.43781045,1.1025935,-2.138051
176,-14.0,19.0,0.0,13.0,26.0,1026.0,0.115675956,0.87324756,0.9321551,0.1719577,0.5075599,1.8226972,3.2625175,1.4863728,1.247229,4.1935925,1.6594356,1.0231618,22.74694,9.640857,27.043554,31.546566,198.0,-103.0,91.0,-1516.0,1102.0,636.0,-0.49478763,0.79405826,0.7968964,0.66011906,-2.9181287,0.5332616,3.9538326,0.7005093,1.8214861,0.11738434,0.9206464,-0.38909772,-0.024885884,0.57455915,0.65822107,-0.24757458
177,1.0,-1.0,0.0,21.0,24.0,1010.0,0.18552329,0.9659907,0.9321551,0.35614976,1.2553014,2.830355,3.2625175,0.9592206,1.3746294,5.1750145,2.178656,1.3372244,23.89742,10.214375,24.873291,27.509422,328.0,-152.0,67.0,-853.0,852.0,1088.0,-0.49478763,0.5892044,0.77350503,0.75602806,-3.2356255,0.7329366,3.977166,0.5802484,1.6234243,-0.15037605,0.9206464,-0.4934752,0.099798664,0.6093758,0.4729377,-0.7789142
178,-1.0,0.0,0.0,20.0,27.0,993.0,0.26207143,0.91916835,0.9770462,0.07808286,1.5859643,2.6422114,3.3212454,1.1905099,1.6328622,5.583944,2.6562812,1.1813626,22.584057,10.048448,22.992062,23.446665,331.0,59.0,175.0,-1616.0,-441.0,1712.0,-1.1408108,0.9898924,0.8199424,0.6291427,-2.7640522,0.40028092,3.9538326,0.5069384,1.4356092,-0.28699034,0.91407496,-0.5999362,0.16301422,0.6444469,0.4729377,-0.5985127
179,-2.0,2.0,0.0,24.0,23.0,997.0,0.3883432,0.87324756,0.95407593,0.26464337,2.0317552,4.8106465,3.291799,1.1110138,2.1367946,6.234611,3.1867063,1.7438508,21.775158,9.480735,19.043232,21.157969,268.0,167.0,158.0,-984.0,-672.0,2125.0,-1.0499684,0.79405826,0.8199424,0.66011906,-2.4650414,0.40028092,4.0718846,0.49203193,1.5405912,-0.7081114,0.91407496,-0.5999362,0.29116505,0.5056839,1.0157061,-1.1498079
180,-56.0,34.0,29.0,150.0,-43.0,1058.0,4.946788,8.899652,4.731459,4.370219,7.4965177,26.23483,30.644758,16.850105,7.4327326,4.847407,5.5644565,1.2335603,0.6222699,1.5156964,-0.49379984,0.91290903,246.0,159.0,70.0,-734.0,-754.0,2227.0,-1.1408108,0.79405826,0.83362854,0.7235645,-2.6130366,0.3338313,4.0479956,0.49203193,1.405584,-0.4254652,0.91407496,-0.4934752,0.29116505,0.47162265,0.65822107,-1.3403915
181,-131.0,9.0,50.0,170.0,-74.0,1386.0,5.57214,10.372899,5.661713,5.7739663,7.323072,30.56826,45.77741,27.12907,5.614027,3.7880456,3.7603283,0.3024515,0.99411494,1.237611,-0.49379984,0.7764276,120.0,12.0,44.0,1242.0,-3205.0,1682.0,-1.1408108,0.79405826,0.8666115,0.9256469,-2.6130366,0.3338313,4.0479956,0.5802484,1.3779742,-0.015593896,0.9206464,-0.8192602,0.35608995,0.43781045,0.5661601,-0.5985127
182,-199.0,0.0,56.0,-12.0,-71.0,1408.0,6.11664,11.456018,5.72944,8.059122,4.314169,32.068634,51.442657,32.425114,2.6314816,2.606189,1.5608052,-0.17807701,1.2634943,0.4635567,-0.59939283,0.82150817,-203.0,-87.0,119.0,28.0,-510.0,1057.0,-0.86649245,0.8930551,0.783143,0.75602806,-2.6130366,0.9995556,4.095915,0.523243,1.2489771,1.5823739,0.93664944,-0.1864424,3.710936,1.6489786,10.940836,7.565282
183,-279.0,3.0,57.0,53.0,-154.0,1561.0,4.8297687,11.346664,6.6917405,11.279576,2.065618,17.265999,31.384182,26.974577,2.3752713,2.013074,1.3840313,-0.17807701,1.6980313,0.23265727,-0.28503552,0.6875268,-4.0,0.0,-1.0,-22.0,38.0,997.0,-0.49478763,1.1774578,0.783143,1.1071887,-0.4744062,1.6011511,4.0718846,0.5802484,1.4596487,8.3413725,2.9374394,3.1947386,22.47808,11.182843,15.340986,10.549148
184,-399.0,19.0,113.0,495.0,-341.0,1932.0,3.7932613,6.613696,7.1110053,11.933883,1.4050676,8.72136,10.972413,19.57373,2.0248818,0.8501687,1.0049974,-0.11616254,2.2485564,0.8924309,-0.38901776,0.73176587,-9.0,-1.0,-3.0,-21.0,28.0,998.0,0.4348344,1.9377016,0.7830491,1.1071887,0.6196776,3.8346126,5.3375974,1.2204866,2.0566142,10.134791,5.088008,4.581513,14.187902,8.791129,4.4541497,6.5413837
185,-440.0,-28.0,204.0,236.0,-263.0,3498.0,1.5391406,2.4746215,2.3699443,2.7992017,-0.2228055,2.8930764,4.427354,2.7281032,1.3134402,1.5943552,0.9935302,0.0060154353,0.92940825,0.57467,-0.70580804,0.6875268,-12.0,0.0,-4.0,-23.0,27.0,1007.0,2.4914122,2.5313163,0.99338055,0.9968515,1.9405549,5.7872458,6.3680887,2.851413,2.565472,10.3305855,5.2582755,5.065895,7.7037897,5.1642427,2.9178655,5.001225
186,447.0,-64.0,1.0,-40.0,141.0,1421.0,0.08343187,0.87324756,0.8915324,-0.016990552,-1.0408092,1.1136401,2.9785597,0.5390452,1.9321578,0.3590551,1.1903547,-0.43155134,0.68147284,-0.010825335,-0.07942656,0.73176587,-14.0,5.0,-7.0,-36.0,17.0,1019.0,4.4552407,5.3130264,1.9324735,1.340312,2.6934242,8.207777,7.3339796,4.424669,3.3432806,10.134791,5.7736545,4.2208714,2.9514747,2.9391465,1.5240719,2.4935765
187,165.0,0.0,-18.0,-1570.0,-3600.0,1642.0,0.14972906,0.87324756,0.95407593,-0.016990552,-0.2228055,1.2442449,3.0902352,0.8175403,2.0083463,0.24079579,1.1570392,-0.30362397,0.14204775,-0.010825335,-0.59939283,0.73176587,-36.0,-15.0,-13.0,-77.0,-1.0,1069.0,5.3249445,8.24876,2.4771082,2.279695,3.3579879,11.834582,11.673999,8.661201,3.3432806,6.132327,3.6137412,2.7422721,0.8259624,1.3204836,0.5661601,0.5742951
188,-23.0,-6.0,6.0,-1082.0,-3774.0,995.0,0.14972906,0.91916835,0.9321551,0.07808286,-0.2228055,1.179053,3.2044446,0.62537205,2.0083463,0.27855557,1.0762466,-0.43155134,0.5642031,0.40694413,4.5670724,3.15985,-89.0,-35.0,-14.0,-82.0,-66.0,1233.0,5.9724092,10.892933,2.9108396,3.8600972,3.6177862,15.798977,18.043566,16.494505,2.792309,4.725622,2.1353674,0.10285662,0.48761344,1.085563,0.65822107,-0.9626641
189,-159.0,166.0,-9.0,-255.0,-253.0,1142.0,0.053066228,0.8282364,0.91130126,0.26464337,-0.27362347,1.3740072,3.1756516,0.5390452,2.0083463,1.395426,1.037792,-0.36728334,3.0203023,1.6497122,14.461953,10.925007,-139.0,-17.0,-16.0,-2.0,-45.0,1351.0,5.6706624,10.195869,4.404167,6.2794514,3.197586,16.806871,23.932253,26.081871,1.487641,3.3986845,1.2103754,-0.088089146,1.0353336,0.823661,-0.11332944,-1.1498079
190,-197.0,110.0,45.0,-6.0,20.0,1554.0,0.115675956,0.7841428,1.052079,0.7105949,-0.07636962,1.0479956,3.0062442,0.34328243,1.7918508,1.8004907,0.9924446,-0.43155134,11.441223,4.263411,29.858913,33.417023,191.0,-30.0,133.0,-596.0,1319.0,710.0,-0.95849884,1.1774578,0.8080829,0.69159395,-3.2356255,0.5332616,4.0479956,0.5069384,1.5806947,0.8789219,0.91407496,-0.38909772,-0.44234455,0.5399956,0.18585505,-0.5985127
191,-9.0,3.0,-1.0,6.0,10.0,1047.0,1.2945465,0.9659907,1.0260649,0.07808286,2.4246933,4.2240252,3.5628576,0.78377414,4.273404,7.9038315,3.509775,1.4910696,26.252832,12.053615,16.68285,16.8286,325.0,-35.0,18.0,-285.0,1075.0,829.0,-1.1408108,0.692807,0.8080829,0.7235645,-2.320026,0.8661904,4.0242467,0.49203193,1.5405912,0.8789219,0.9144459,-0.4934752,-0.26711157,0.57455915,0.18585505,-0.5985127
192,-1.0,-9.0,4.0,48.0,4.0,1011.0,3.9813719,6.7090483,4.0297294,3.1471171,4.5602245,15.995701,16.758966,10.764162,8.81279,6.6378207,7.8870363,1.6432137,0.86577916,0.99363226,0.123114325,1.0059359,377.0,106.0,62.0,-519.0,-115.0,1806.0,-0.95849884,0.8930551,0.8080829,0.66011906,-3.2356255,0.3338313,3.977166,0.523243,1.4356092,0.75618774,0.93664944,-0.28676605,-0.26711157,0.47162265,0.7491641,-1.3403915
193,-26.0,11.0,6.0,32.0,-8.0,1032.0,4.6522593,8.387328,4.6664734,3.7343292,5.7958846,20.748806,23.09278,13.356822,7.4327326,4.1122165,6.6188374,0.5312053,0.39694083,0.68309057,-0.18184212,1.0059359,379.0,130.0,47.0,-585.0,-256.0,2223.0,-1.1408108,0.79405826,0.8199424,0.6291427,-2.9181287,0.26740894,4.0242467,0.5802484,1.3527391,0.63181406,0.9480702,-0.38909772,-0.14720464,0.47162265,0.3785097,-1.1498079
194,-88.0,0.0,4.0,1.0,-69.0,1103.0,6.434615,10.052725,5.3254476,5.583004,5.9460664,30.56826,36.83374,19.3575,2.8340464,2.7594016,2.3091314,-0.43155134,0.34354064,0.40694413,-0.07942656,0.86700326,352.0,164.0,-2.0,-702.0,-538.0,2596.0,-1.1408108,1.0846632,0.8199424,0.66011906,-2.9181287,0.40028092,4.000637,0.5802484,1.3092324,1.0000433,0.93664944,-0.8192602,-0.14720464,0.40424585,0.3785097,-0.9626641
195,-112.0,4.0,3.0,11.0,-105.0,1183.0,6.591717,11.2375345,6.8310924,7.115429,5.220796,32.221767,35.34071,21.04294,1.6328622,2.379787,1.0978341,-0.17807701,0.2913384,0.23265727,-0.18184212,0.73176587,238.0,176.0,3.0,241.0,-1771.0,3001.0,-1.3202382,0.692807,0.83362854,0.82242346,-2.7640522,0.068306506,3.977166,0.6487849,1.2607923,1.2375529,0.93664944,-0.5999362,-0.024885884,0.6093758,-0.11332944,-0.5985127
196,-167.0,21.0,13.0,68.0,-161.0,1415.0,6.5394697,14.368993,9.180091,10.115277,3.0947585,23.780884,26.222519,21.04294,1.4060863,1.7310259,0.9935302,0.0060154353,0.68147284,0.112566754,-0.38901776,0.64371467,-69.0,-6.0,31.0,1053.0,-5082.0,1726.0,-0.3078242,0.48315126,0.7897148,0.788982,-2.0387714,0.26740894,4.095915,0.6018505,1.3298384,1.694365,1.0154818,0.19552408,1.766131,0.8971685,6.276805,6.16229
197,-326.0,0.0,181.0,1305.0,1871.0,3680.0,0.14972906,1.1621382,1.1657752,0.6236984,-0.90856284,1.3092263,3.4709802,0.62537205,1.508163,0.5873412,1.1570392,-0.11616254,0.19057897,-0.010825335,-0.49379984,1.1484545,-257.0,-110.0,181.0,-85.0,-705.0,826.0,-0.21431808,0.9898924,0.783143,0.85634995,-2.320026,0.5997927,4.1688595,0.45600685,1.2747478,3.6651747,0.97752035,0.37543488,6.0969353,2.3592594,25.226128,15.052653
198,321.0,84.0,-50.0,1268.0,3439.0,386.0,0.18552329,0.91916835,1.0010482,0.4464872,-0.9739776,1.8862287,2.8964322,0.43469995,1.6671574,0.49160206,1.1903547,0.0060154353,0.68147284,0.112566754,-0.18184212,0.6875268,-356.0,-211.0,28.0,821.0,89.0,2657.0,-0.40133697,0.9898924,0.7750686,0.89075863,-2.0387714,0.46675768,4.1200867,0.45600685,1.2316191,5.2435646,1.0876157,0.28637108,17.130424,6.9852114,33.019848,28.793974
199,450.0,-69.0,3.0,520.0,785.0,1092.0,0.18552329,0.87324756,0.91130126,0.1719577,-0.9739776,0.7159244,2.8424432,0.65562785,1.9321578,0.27855557,1.1570392,-0.11616254,0.5642031,0.3496027,-0.18184212,1.1005566,-121.0,-110.0,7.0,-170.0,84.0,1388.0,-0.58810455,1.1774578,0.77350503,1.2216991,-1.9024504,0.7329366,4.0479956,0.46653515,1.487641,7.982384,1.4462426,0.6322977,26.263044,11.776812,24.834,18.954807
200,449.0,-76.0,-92.0,162.0,206.0,1311.0,0.115675956,0.8282364,0.9321551,0.07808286,-0.90856284,0.7159244,2.9785597,0.511785,2.0886557,0.3179901,1.1269534,-0.05480285,0.92940825,0.0512933,-0.49379984,1.0059359,-24.0,-15.0,-11.0,-48.0,4.0,1026.0,4.746032,7.177117,2.636487,2.0393481,1.8906882,8.131935,10.136523,9.96443,1.7584327,5.8000937,2.7248724,2.2915606,0.8259624,2.1749725,0.8390317,1.7356439
201,402.0,-113.0,-94.0,181.0,-36.0,1773.0,0.14972906,0.8282364,0.91130126,-0.11327149,-0.90856284,0.8495664,3.0062442,0.5670702,2.0083463,0.3179901,1.2269567,-0.24055967,0.6222699,0.0512933,-0.18184212,0.6875268,-44.0,-37.0,-18.0,-77.0,-27.0,1044.0,5.1067677,9.411694,3.2527292,3.2248878,2.1300063,10.005234,14.092687,14.750646,1.6475185,5.098818,2.3230984,1.1760979,0.22680476,1.0094075,0.08753522,1.0311154
202,179.0,-58.0,-12.0,-991.0,-3875.0,2235.0,0.115675956,0.8282364,0.9321551,-0.016990552,-0.27362347,1.2442449,3.1470196,0.45960155,2.0083463,0.3590551,1.2269567,-0.24055967,0.048748445,0.17301486,-0.18184212,0.64371467,-66.0,-19.0,-45.0,-195.0,-115.0,1308.0,5.44918,9.968513,3.080184,4.4726686,2.3468354,13.064285,18.802279,21.794048,1.7584327,3.5773473,1.6850114,-0.088089146,0.6890105,0.8971685,0.18585505,-0.7789142
203,-41.0,87.0,-43.0,-663.0,-4139.0,1082.0,0.14972906,0.9659907,0.9321551,-0.11327149,-0.2228055,1.3092263,3.2333996,0.43469995,1.9321578,0.63730115,1.0230237,-0.36728334,0.68147284,0.7363365,5.7221723,4.7265377,-125.0,-17.0,-48.0,75.0,-64.0,1279.0,5.5747833,8.978653,3.7870014,7.446526,1.9893855,13.608494,22.432297,33.126846,1.227121,2.739519,1.061603,-0.1864424,1.1774951,0.823661,0.28283086,-1.9332438
204,-203.0,130.0,-2.0,-228.0,-669.0,793.0,0.14972906,0.8282364,0.9770462,0.07808286,-0.4325028,1.0479956,3.062081,0.34328243,1.9321578,1.8004907,1.0762466,-0.49644136,3.9550714,2.5295336,25.492197,23.955046,-180.0,-31.0,-48.0,-42.0,-163.0,1452.0,4.9141626,7.555932,3.9086747,9.320621,0.37357467,7.531362,13.1319275,29.225376,1.2207155,1.2375529,1.0375441,-0.8192602,1.3945305,0.6797736,0.5661601,-1.7320627
205,-343.0,34.0,-43.0,64.0,36.0,2395.0,0.115675956,0.87324756,1.0790735,0.7963677,0.10589952,1.0479956,2.9510303,0.59584934,1.6104891,1.527206,0.9924446,-0.6281419,10.910673,5.5222898,42.092667,46.574493,-286.0,-63.0,-81.0,-230.0,-178.0,2059.0,4.8811955,4.646642,5.1039286,9.646896,-0.79731625,4.2473493,7.6423655,22.055971,1.3527391,-0.15037605,0.9144459,-0.4934752,1.6160301,1.0473517,0.08753522,-2.346532
206,-2.0,0.0,0.0,20.0,31.0,1020.0,0.34480792,0.87324756,1.1070321,1.208818,1.1951033,2.3282566,3.0902352,0.511785,2.1946344,6.0725074,2.802883,2.3889508,26.423878,11.689909,19.624033,20.475708,-434.0,-68.0,-127.0,-605.0,-360.0,2270.0,5.293943,5.01096,4.9753838,4.0404525,-1.638215,2.677582,6.596928,11.613614,1.3527391,1.8049235,0.9480702,0.54836124,-0.08634382,0.6444469,0.65822107,-1.5344609
207,-2.0,0.0,0.0,21.0,45.0,1001.0,0.7282036,1.1621382,1.0790735,1.2881181,1.465063,4.2240252,4.1137366,1.1905099,2.8340464,6.9579988,4.279841,3.5957768,21.454168,9.884168,12.209469,12.706693,-504.0,-58.0,-156.0,112.0,-289.0,3303.0,4.377255,3.3502357,2.6905167,0.9968515,-2.320026,1.8022515,5.6945014,6.312498,1.5030708,2.2333262,1.0375441,0.0083313575,0.29116505,0.6444469,-0.42593798,-1.7320627
208,-5.0,-10.0,3.0,41.0,25.0,1013.0,3.6667585,5.8658576,3.782559,3.2583425,3.1411588,14.368843,12.750912,9.442341,7.3459377,7.9038315,7.5935025,3.33811,1.1267163,1.6053725,-0.38901776,1.1005566,-465.0,-5.0,-209.0,-1082.0,523.0,4078.0,1.2349375,1.858927,0.8416288,0.66011906,-3.2356255,1.1330345,4.4215207,1.5286542,1.5405912,0.8789219,0.91407496,-0.38909772,-0.08634382,0.6093758,-0.0121766245,-0.7789142
209,-24.0,7.0,6.0,58.0,16.0,1030.0,4.8884096,7.883076,4.155029,3.7850797,4.078422,19.139488,17.94924,12.065559,6.7378664,4.9293118,7.105084,1.7438508,0.45152625,1.0434259,-0.07942656,1.2944504,71.0,-120.0,220.0,-290.0,3755.0,-535.0,-0.6812132,0.9898924,0.8080829,0.69159395,-3.2356255,0.8661904,4.1444016,0.81747633,1.5030708,0.37804067,0.9206464,-0.4934752,-0.3261457,0.5399956,0.08753522,-0.7789142
210,-202.0,21.0,15.0,60.0,-135.0,1445.0,6.063073,13.799287,8.459491,10.9608555,2.7433784,25.838022,33.505257,25.481335,1.4394279,1.7310259,1.0575255,0.12608112,0.86577916,0.3496027,-0.18184212,0.64371467,182.0,-25.0,128.0,-1180.0,787.0,832.0,-0.86649245,1.0846632,0.7897148,0.75602806,-3.0753064,0.7329366,4.0718846,0.54091585,1.3527391,0.63181406,0.91407496,-0.5999362,-0.20746252,0.47162265,0.18585505,-0.7789142
211,-430.0,51.0,88.0,616.0,-320.0,2030.0,4.8297687,9.003039,10.421608,11.522363,0.98027503,9.124889,9.157303,16.571236,1.7687734,0.5387615,1.0230237,0.3024515,1.6231482,0.57467,-0.49379984,0.73176587,408.0,64.0,35.0,-218.0,575.0,1006.0,-1.2309331,0.79405826,0.8080829,0.69159395,-2.9181287,0.79954964,4.000637,0.47855392,1.5405912,0.11738434,0.9144459,-0.38909772,-0.3261457,0.5399956,0.4729377,-0.9626641
212,-488.0,-83.0,133.0,876.0,-1229.0,2983.0,3.730115,4.712613,4.927692,4.6981635,0.6510133,5.82273,6.778357,8.224057,1.3451027,1.4608864,1.1213392,1.1813626,1.6231482,1.1897804,-0.38901776,0.60033345,171.0,206.0,72.0,798.0,-3987.0,2280.0,-1.2309331,0.9898924,0.83362854,0.89075863,-2.6130366,0.13464636,4.0479956,0.5802484,1.3298384,1.0000433,0.9480702,-0.28676605,-0.08634382,0.40424585,0.8390317,-1.1498079
213,-529.0,-2.0,157.0,164.0,-200.0,4536.0,1.6014339,2.8946388,1.9807236,2.5540063,-0.3784427,3.4591088,4.3562865,2.6738563,1.2844456,0.7950735,1.0145017,0.3024515,1.1267163,0.78896344,-0.38901776,0.6875268,-138.0,-113.0,0.0,-113.0,91.0,1598.0,-0.6812132,0.8930551,0.783143,0.9256469,-2.0387714,0.46675768,4.0479956,0.4395487,1.3042525,7.8627467,1.4029105,0.54836124,24.912851,11.520562,26.700804,18.45291
214,-310.0,34.0,192.0,1047.0,3001.0,3339.0,0.18552329,0.9659907,1.0260649,-0.2107684,-0.8445332,1.3740072,3.291799,0.65562785,1.6671574,0.40170717,1.1269534,-0.11616254,0.50728446,0.29151344,-0.18184212,1.0530491,-13.0,-25.0,3.0,24.0,-2.0,1136.0,-0.49478763,0.8930551,0.77517587,1.1830697,-0.3714619,1.5341839,4.0718846,0.44700068,1.4330477,8.6417885,2.5873098,2.8360145,25.752464,13.920306,22.436184,14.95061
215,391.0,33.0,-74.0,773.0,2306.0,1624.0,0.115675956,0.9659907,0.91130126,-0.016990552,-1.0408092,1.6313276,2.9236548,0.511785,2.0083463,0.3590551,1.1903547,0.0060154353,0.39694083,0.0512933,0.022221994,0.64371467,-3.0,0.0,0.0,2.0,33.0,1008.0,1.1487815,2.0153022,0.82838345,1.0699425,0.77453697,3.9032226,5.464716,1.5754421,1.4078658,8.3413725,4.0906787,4.04695,15.496065,9.482744,6.7573085,7.0924263
216,426.0,-5.0,-41.0,794.0,943.0,1114.0,0.115675956,0.87324756,1.0010482,0.1719577,-0.9739776,1.3740072,2.8964322,0.41060627,2.1731606,0.3179901,1.2269567,-0.11616254,0.6222699,0.17301486,0.022221994,0.60033345,-7.0,4.0,0.0,-1.0,31.0,1011.0,2.4914122,3.0147302,0.9701911,0.96101207,1.3271693,4.6628733,6.2935867,3.9909394,1.516997,8.4013195,3.6137412,3.6641688,8.227627,5.726164,3.5050826,5.12793
217,464.0,-89.0,-25.0,12.0,697.0,1212.0,0.115675956,0.87324756,0.95407593,0.26464337,-0.9739776,1.3092263,2.8424432,0.43469995,2.0083463,0.27855557,1.1903547,-0.43155134,0.50728446,0.3496027,0.123114325,0.91290903,-17.0,-3.0,-5.0,-17.0,17.0,1010.0,3.75372,6.1997504,2.4249265,1.8092035,1.6801536,6.649426,7.6423655,8.08602,1.8797586,6.45488,2.3230984,2.54837,1.2493383,2.1296027,1.1885669,1.9985209
218,446.0,-72.0,-51.0,-3.0,237.0,1418.0,0.115675956,0.91916835,0.95407593,0.8810291,-0.9739776,1.0479956,3.0062442,0.43469995,2.0886557,0.27855557,1.2269567,-0.30362397,0.24034686,0.0512933,-0.28503552,0.91290903,-29.0,-19.0,-8.0,-35.0,5.0,1027.0,4.6045194,7.3649597,2.7449784,2.8963847,1.7877057,7.8303037,10.500783,10.636979,1.6475185,4.951553,1.6850114,1.5877953,0.037163474,1.4009615,-0.0121766245,1.7356439
219,416.0,-120.0,-40.0,119.0,78.0,1910.0,0.14972906,0.7841428,0.91130126,-0.016990552,-1.0408092,1.0479956,3.0062442,0.43469995,2.1731606,0.2047557,1.1903547,-0.30362397,0.2913384,0.0512933,-0.07942656,0.6875268,-72.0,-8.0,-49.0,-209.0,-111.0,1120.0,5.3249445,9.632397,2.6905167,4.7908835,2.219202,12.442611,18.257162,24.860811,1.6832922,2.739519,1.282413,-0.1864424,0.22680476,0.8971685,0.8390317,-0.42141443
220,-187.0,25.0,-66.0,-824.0,-5135.0,3344.0,0.22299235,0.8282364,0.91130126,-0.016990552,-0.48770285,0.98210907,3.062081,0.5390452,2.0083463,0.7412056,1.0762466,-0.17807701,2.0070689,1.0434259,9.778246,8.341142,-87.0,-9.0,-54.0,50.0,-56.0,1154.0,5.4180446,9.632397,3.310909,5.9289536,2.262535,13.517047,20.537241,28.877756,1.3411214,3.0287282,1.061603,-0.28676605,0.75722075,0.6797736,0.08753522,-0.9626641
221,-137.0,115.0,-54.0,-13.0,891.0,1069.0,0.08343187,0.8282364,1.0010482,0.1719577,-0.12420734,1.1136401,3.0340843,0.38733146,1.7275879,1.4608864,1.0111572,-0.36728334,5.279783,2.934532,30.157822,32.384163,-187.0,-29.0,-52.0,-93.0,-178.0,1508.0,5.293943,6.1997504,4.847379,9.646896,0.5395253,5.858419,10.256517,26.396395,1.227121,0.37804067,0.9206464,-0.4934752,1.106159,0.6444469,0.5661601,-1.3403915
222,-382.0,35.0,-26.0,-227.0,210.0,2547.0,0.18552329,0.7841428,1.1070321,1.0470686,0.01652525,1.179053,3.0062442,0.30264163,1.508163,2.2313905,0.9924446,-0.49644136,16.667727,6.512121,34.7251,42.00563,-324.0,-79.0,-83.0,-462.0,-276.0,2046.0,5.2629223,6.4570227,6.545492,8.443739,-1.2622584,2.745213,6.833991,16.788427,1.3298384,0.11738434,0.9227458,-0.5999362,0.48761344,1.0094075,1.2736645,-1.7320627
223,-177.0,115.0,-13.0,97.0,20.0,1498.0,0.3026972,0.8282364,0.9321551,0.8810291,0.23384206,1.0479956,3.0062442,0.45960155,1.7219117,5.583944,1.3840313,0.7533995,27.980322,10.981186,26.910557,28.246157,-513.0,-69.0,-219.0,28.0,-796.0,3636.0,4.296813,2.3880916,2.1716821,1.1830697,-3.0753064,1.1998174,5.369097,3.4424272,1.3527391,0.37804067,0.91615796,-0.38909772,0.16301422,0.823661,0.08753522,-1.5344609
224,-2.0,1.0,-1.0,1.0,-4.0,1048.0,0.34480792,1.0623085,1.135938,1.5951537,1.6471323,3.6489182,3.9462256,0.78377414,2.0801985,6.234611,3.0303478,2.438316,25.911867,11.780258,21.038536,21.042973,-383.0,-192.0,-137.0,-1046.0,3084.0,3655.0,0.06551421,1.5306237,0.77517587,0.69159395,-3.2356255,0.9995556,4.500264,0.7005093,1.3092324,1.3539933,0.9144459,-0.70851856,0.16301422,0.57455915,0.3785097,0.09050758
225,-1.0,0.0,0.0,19.0,18.0,1004.0,0.7282036,1.5953346,1.2281787,3.0336108,1.8349859,5.412117,5.552663,2.6199355,3.4868321,6.7180758,3.9309268,3.08469,19.093613,10.048448,13.841685,13.126252,144.0,-13.0,252.0,-1340.0,2137.0,1529.0,-0.58810455,0.5892044,0.8080829,0.75602806,-2.7640522,0.8661904,4.0479956,0.47855392,1.4356092,1.5823739,0.91407496,-0.38909772,-0.20746252,0.57455915,0.18585505,0.254838
226,-5.0,-2.0,-1.0,16.0,20.0,1006.0,1.0589948,1.8923761,1.7146137,2.7992017,2.0317552,7.4804616,7.3334293,4.354862,4.9346166,7.3548875,5.282478,2.8345199,12.660659,6.3288674,6.4857354,5.930001,259.0,43.0,79.0,-637.0,1417.0,730.0,-0.774036,0.5892044,0.83362854,0.66011906,-3.0753064,0.8661904,4.0479956,0.4395487,1.3779742,1.0000433,0.9206464,-0.38909772,-0.3261457,0.57455915,0.3785097,0.41608608
227,-8.0,-9.0,1.0,28.0,5.0,1006.0,2.8933523,4.971449,2.9595702,3.2583425,2.8280098,11.169038,11.641159,8.3581085,6.477418,8.367896,5.4701347,2.2408373,2.1671548,2.4889612,0.5193339,1.3438697,345.0,46.0,-7.0,-52.0,803.0,880.0,-1.1408108,1.1774578,0.8199424,0.7235645,-3.0753064,0.93285894,4.0242467,0.47855392,1.3779742,0.24858661,0.9206464,-0.28676605,-0.3261457,0.5056839,0.28283086,-0.24757458
228,-3.0,-7.0,4.0,38.0,5.0,1000.0,3.9188957,6.143101,3.4806008,3.4212072,3.3818269,16.099918,14.040729,10.202214,6.390686,6.234611,6.3287516,1.6432137,0.68147284,1.3784666,-0.07942656,1.0530491,392.0,105.0,73.0,-314.0,138.0,1433.0,-1.0499684,0.79405826,0.8199424,0.66011906,-2.4650414,0.5332616,4.000637,0.5069384,1.4680909,0.63181406,0.9480702,-0.4934752,-0.14720464,0.47162265,0.3785097,-1.1498079
229,-16.0,0.0,9.0,58.0,-1.0,1030.0,4.5325985,7.5846205,3.843906,3.8855007,4.1363974,21.816229,19.695354,12.969585,5.699836,4.3566513,5.3761363,1.2855103,0.34354064,0.84098905,-0.28503552,1.1967388,396.0,147.0,-13.0,-448.0,-269.0,2632.0,-1.3202382,0.692807,0.84917384,0.6291427,-3.0753064,0.26740894,3.977166,0.5069384,1.4680909,1.1195782,0.9206464,-0.4934752,-0.20746252,0.40424585,0.3785097,-1.1498079
230,-75.0,2.0,18.0,49.0,-53.0,1153.0,6.2763205,10.052725,5.125731,5.4414783,6.5719824,28.55572,36.616844,20.350765,5.442913,2.606189,3.346585,-0.17807701,0.45152625,0.78896344,-0.49379984,0.7764276,351.0,218.0,-20.0,-479.0,-1027.0,2991.0,-0.95849884,0.79405826,0.83362854,0.7235645,-2.6130366,0.26740894,3.930636,0.54091585,1.3779742,1.694365,0.91615796,-0.5999362,-0.14720464,0.47162265,0.18585505,-0.9626641
231,-102.0,0.0,12.0,-56.0,-71.0,1150.0,6.591717,11.128631,5.797316,6.5227485,6.983246,35.580883,42.421528,24.489923,3.7170453,2.4547694,2.0533543,-0.36728334,0.74179983,0.62920773,-0.28503552,0.73176587,327.0,212.0,0.0,305.0,-2848.0,2523.0,-1.2309331,0.5892044,0.84917384,0.75602806,-2.6130366,0.068306506,4.000637,0.55992734,1.2908818,1.2375529,0.9954594,-0.38909772,0.099798664,0.40424585,0.08753522,-0.9626641
232,-161.0,4.0,7.0,23.0,-126.0,1370.0,6.5394697,12.3385515,7.462999,9.178041,5.3607,33.626877,38.38656,24.909544,2.0248818,2.085243,1.0765477,0.18535511,0.6222699,0.5194591,-0.28503552,0.6875268,-233.0,-208.0,149.0,1407.0,-4453.0,1084.0,-0.21431808,0.79405826,0.7980176,0.75602806,-2.320026,0.5332616,4.1200867,0.49203193,1.3779742,2.2333262,1.2103754,0.54836124,4.686109,1.863263,17.08686,8.250652
233,-234.0,11.0,18.0,88.0,-188.0,1493.0,5.2347846,13.346562,9.107714,11.603988,2.240233,22.057037,27.18656,25.481335,2.3752713,1.2045084,1.0111572,0.41770005,0.8032392,0.5194591,-0.07942656,0.7764276,-274.0,-150.0,-17.0,220.0,28.0,2021.0,-0.86649245,1.2683654,0.7783516,0.9256469,-2.0387714,0.3338313,4.0479956,0.47855392,1.2329419,8.042182,1.1769611,0.46275258,23.92391,10.358094,27.392025,20.124659
234,-496.0,-7.0,139.0,733.0,-613.0,2540.0,4.2288814,5.412756,7.3924227,7.115429,0.7198488,7.4804616,7.650945,11.407708,1.8669722,0.63730115,0.99591917,0.6430709,1.1267163,0.78896344,-0.18184212,0.6875268,-27.0,-50.0,11.0,-48.0,6.0,1397.0,-0.21431808,1.0846632,0.7830491,0.85634995,-0.07612673,1.0662806,4.0479956,0.47855392,1.7202718,8.762559,2.4533124,2.396417,25.752464,14.294162,24.445845,16.334606
235,-513.0,-61.0,171.0,-25.0,-950.0,3976.0,2.501676,3.2628646,2.6844707,2.858772,0.19197413,4.353264,4.794898,3.229933,1.247229,1.2672058,0.9924446,1.0761755,2.0866559,1.0927042,-0.18184212,0.6875268,-5.0,0.0,0.0,-9.0,26.0,1001.0,1.4048426,2.0917988,0.7968964,0.89075863,0.77453697,4.109477,5.496966,1.5754421,1.6832922,9.312569,4.1718097,3.8758616,17.269867,11.015667,8.446419,7.588408
236,436.0,-105.0,-66.0,223.0,184.0,1455.0,0.115675956,0.91916835,0.95407593,0.7105949,-0.90856284,1.6313276,3.062081,0.41060627,2.0083463,0.27855557,1.1903547,-0.36728334,0.68147284,-0.010825335,0.123114325,1.1967388,-7.0,3.0,0.0,-13.0,26.0,1015.0,2.4914122,2.3880916,1.1258825,0.85634995,1.5096245,5.221841,6.4056697,2.851413,1.8382001,9.561497,4.583376,4.353835,9.306725,6.779881,3.942286,5.420599
237,261.0,-72.0,-25.0,-1030.0,-3643.0,2290.0,0.14972906,0.87324756,0.9770462,-0.016990552,0.061638564,1.3092263,3.1756516,0.5670702,1.9321578,0.3590551,1.1903547,-0.17807701,0.19057897,0.29151344,-0.18184212,0.73176587,-14.0,4.0,-3.0,-29.0,13.0,1012.0,3.6517794,4.504584,1.4649823,1.1830697,1.6245738,6.2160707,7.163379,4.2381916,2.0108526,9.066606,3.382508,3.3672721,3.9718328,3.7754433,1.7678958,2.949774
238,-42.0,52.0,-23.0,-1284.0,-5481.0,2687.0,0.18552329,0.87324756,0.9770462,0.35614976,-0.17300975,1.3740072,3.1756516,0.511785,1.9321578,0.68860215,1.037792,-0.17807701,0.6222699,0.9433062,6.141103,4.6613693,-23.0,-13.0,-9.0,-48.0,-7.0,1018.0,4.6761584,7.9472136,2.6905167,1.9460491,2.084077,9.054219,10.377932,9.112486,1.6475185,5.6640644,2.5873098,1.6521019,0.48761344,1.4825337,0.3785097,1.6002291
239,-218.0,139.0,-31.0,-389.0,-1313.0,786.0,0.115675956,0.8282364,0.95407593,-0.11327149,-0.17300975,1.1136401,3.062081,0.48530015,2.0083463,1.4608864,1.0230237,-0.36728334,3.761971,2.4889612,25.744164,24.86843,-65.0,-15.0,-38.0,-240.0,-103.0,1197.0,5.44918,12.10024,2.9669151,3.7415252,2.5068724,13.884659,19.36367,18.782072,1.7977502,4.0069466,1.7901826,-0.28676605,0.16301422,0.9343169,0.18585505,0.41608608
240,-369.0,36.0,-28.0,-127.0,-131.0,2314.0,0.14972906,0.8282364,1.1070321,0.4464872,0.39413992,1.179053,3.0902352,0.38733146,1.6104891,1.2045084,0.99591917,-0.561967,12.660659,5.5773163,40.5622,45.8597,-425.0,-105.0,-132.0,-609.0,-289.0,2172.0,5.293943,4.7907195,5.492475,7.5217047,-1.5102179,3.0841057,6.8743215,13.581122,1.3527391,0.8789219,0.9144459,-0.8192602,-0.08634382,0.6797736,0.3785097,-2.138051
241,-258.0,97.0,1.0,125.0,56.0,1703.0,0.18552329,0.8282364,1.0260649,0.7963677,0.10589952,1.1136401,3.062081,0.32253042,1.1667824,4.7655163,1.4689012,0.41770005,28.155167,10.807961,29.858913,33.069324,401.0,59.0,9.0,-256.0,594.0,1119.0,-1.1408108,0.8930551,0.77517587,0.75602806,-3.0753064,0.8661904,3.977166,0.5802484,1.5030708,0.63181406,0.91407496,-0.4934752,-0.3261457,0.5056839,0.92786545,-0.42141443
242,-12.0,10.0,-4.0,12.0,-36.0,1163.0,0.43324408,1.0137068,1.135938,1.0470686,1.2853009,2.7676418,3.0340843,0.48530015,1.5503165,5.8286023,2.6562812,2.3889508,26.252832,12.4234295,27.31166,28.848726,273.0,97.0,-7.0,263.0,-1831.0,1911.0,-1.1408108,0.48315126,0.7750686,0.82242346,-3.0753064,0.3338313,4.000637,0.54091585,1.2316191,0.63181406,0.91615796,-0.1864424,0.42157438,0.5399956,0.8390317,1.3212451
243,-478.0,36.0,136.0,691.0,-338.0,2027.0,3.0884988,4.884663,7.462999,10.190211,0.820021,8.091436,8.972074,16.479223,1.3746294,0.5873412,1.0575255,0.7533995,0.92940825,0.3496027,-0.59939283,0.64371467,216.0,135.0,-52.0,584.0,-3495.0,1690.0,-1.0499684,0.5892044,0.7750686,0.82242346,-2.6130366,0.26740894,4.0479956,0.5802484,1.2908818,1.1195782,0.93664944,-0.28676605,0.35608995,0.5056839,0.92786545,1.1775941
244,-481.0,-70.0,184.0,634.0,-991.0,3182.0,1.9823542,3.8045368,3.1297653,3.367426,0.31537306,6.3835726,5.8092275,7.3598385,1.2685676,1.395426,0.99799067,0.0060154353,1.059888,0.17301486,-0.18184212,0.60033345,-81.0,-69.0,0.0,1736.0,-5016.0,1816.0,-1.2309331,0.692807,0.783143,0.82242346,-2.6130366,0.5332616,4.0718846,0.5069384,1.2908818,1.0000433,0.961709,0.10285662,1.6908393,1.2018073,6.276805,6.4132447
245,-515.0,27.0,194.0,689.0,-44.0,4211.0,0.7282036,1.3720835,1.6726276,1.1284728,-0.60164267,3.018574,4.046168,2.4076498,1.2586197,0.63730115,1.0021396,0.18535511,1.1267163,0.4635567,-0.38901776,0.60033345,-252.0,-138.0,74.0,-33.0,-452.0,1112.0,-0.120884605,0.8930551,0.78924006,0.89075863,-2.4650414,0.5997927,4.095915,0.4395487,1.2489771,3.1228504,1.0876157,0.0083313575,5.616367,2.7903695,26.837944,18.954807
246,424.0,-92.0,-4.0,167.0,593.0,1040.0,0.115675956,0.91916835,0.9321551,-0.11327149,-0.8445332,1.179053,3.062081,0.5390452,1.9321578,0.3179901,1.1903547,0.06630566,0.6222699,0.23265727,0.22326112,0.6875268,-451.0,-162.0,14.0,203.0,-18.0,2714.0,-0.02758699,1.0846632,0.78924006,0.85634995,-2.0387714,0.3338313,4.0479956,0.4395487,1.2260028,5.6640644,1.0154818,0.0083313575,20.016851,8.942918,27.955294,23.662285
247,431.0,-159.0,-72.0,340.0,-22.0,2668.0,0.14972906,0.87324756,0.9770462,0.07808286,-0.8445332,1.5030082,3.062081,0.43469995,2.0083463,0.27855557,1.2669028,-0.30362397,0.39694083,0.112566754,-0.07942656,0.64371467,0.0,0.0,0.0,-12.0,17.0,1008.0,1.3203002,1.9377016,0.8416288,0.788982,0.4575044,3.6975963,5.529406,1.2623016,1.4330477,7.982384,3.8499825,4.309241,20.016851,12.296991,14.3831415,8.806548
248,407.0,-177.0,-55.0,173.0,-1047.0,3406.0,0.14972906,0.8282364,0.9321551,0.1719577,-0.54407275,1.3740072,3.0340843,0.36488646,2.0083463,0.27855557,1.1903547,-0.24055967,0.5642031,0.23265727,-0.07942656,0.73176587,-19.0,-7.0,-8.0,-38.0,3.0,1018.0,4.4552407,7.4600554,2.7998602,2.4791176,1.7877057,7.3828607,10.256517,9.2422495,1.5796913,6.1975527,2.9374394,2.0722098,0.8259624,2.0845134,0.7491641,2.7263794
249,271.0,-164.0,-61.0,-769.0,-3273.0,5177.0,0.14972906,0.8282364,0.9321551,0.26464337,-0.029468155,1.6313276,3.0062442,0.48530015,2.0083463,0.3179901,1.1570392,-0.24055967,0.39694083,0.23265727,-0.18184212,0.6875268,-33.0,-36.0,-13.0,50.0,-30.0,1101.0,5.2629223,11.24945,3.1948752,4.2237577,2.4281967,14.070306,18.364904,19.34727,1.7584327,3.6651747,1.8447034,-0.28676605,0.16301422,0.9343169,-0.11332944,0.5742951
250,118.0,-3.0,13.0,-698.0,-4631.0,1703.0,0.115675956,0.91916835,0.9770462,-0.11327149,0.061638564,1.6313276,3.0902352,0.45960155,1.9321578,0.5387615,0.9924446,-0.36728334,0.50728446,0.29151344,0.9042939,2.1823156,-119.0,-15.0,-13.0,26.0,-80.0,1302.0,5.6385036,10.310507,3.7870014,6.6368194,2.620391,15.898188,23.37555,30.47419,1.2881961,2.1282513,1.1155406,-0.38909772,0.55420226,0.823661,0.3785097,-0.9626641
251,-184.0,97.0,-43.0,-529.0,-4395.0,875.0,0.14972906,0.87324756,0.95407593,0.26464337,-0.2228055,1.3740072,3.0340843,0.41060627,2.1731606,1.0821,1.100041,-0.11616254,2.8428793,1.693739,15.8356,12.623482,-176.0,-26.0,-22.0,-90.0,-169.0,1494.0,4.847922,7.9472136,4.216827,9.483266,0.77453697,10.247873,14.5991125,28.534155,1.2329419,0.24858661,0.97752035,-0.1864424,1.106159,0.6093758,0.3785097,-1.3403915
252,-236.0,92.0,-76.0,-218.0,746.0,2026.0,0.14972906,0.91916835,1.0790735,0.7105949,-0.2228055,1.1136401,2.9785597,0.34328243,1.7918508,1.8004907,1.0021396,-0.6281419,8.493013,4.1713963,43.229702,46.096767,-410.0,-58.0,-173.0,-908.0,1217.0,3906.0,-0.58810455,1.2683654,0.8164951,0.59866744,-2.9181287,1.0662806,4.607441,0.9511102,1.4680909,-0.015593896,0.93664944,-0.5999362,0.35608995,0.6093758,0.08753522,-0.9626641
253,0.0,2.0,-1.0,13.0,3.0,1021.0,0.62537456,1.3183308,1.1657752,2.4270191,1.7401323,5.1427746,4.3917203,1.855051,2.6314816,5.6655693,3.676074,3.33811,24.06325,12.610601,15.587318,17.121206,102.0,-46.0,82.0,-887.0,3653.0,-995.0,-1.0499684,0.8930551,0.8080829,0.59866744,-3.0753064,1.2666298,4.2681437,0.6487849,1.3298384,-0.28699034,0.91407496,-0.70851856,-0.26711157,0.57455915,-0.11332944,-1.7320627
254,-2.0,0.0,0.0,21.0,16.0,1006.0,0.9453843,1.8923761,1.3283728,3.367426,1.7401323,5.82273,5.852834,3.7531648,3.3365638,6.0725074,4.547586,3.8055937,16.076376,8.555454,8.638462,9.458553,223.0,51.0,102.0,-635.0,1036.0,962.0,-1.2309331,0.692807,0.7735506,0.69159395,-2.7640522,1.1330345,4.0718846,0.55992734,1.3527391,-0.15037605,0.9144459,-0.8192602,-0.3261457,0.6093758,-0.11332944,-0.9626641
255,-7.0,-5.0,-2.0,18.0,18.0,1008.0,1.727164,2.4746215,2.170734,3.631664,2.0998187,8.091436,7.385609,5.099025,4.601195,6.7981925,5.282478,3.858618,7.4114075,5.0957246,3.494789,3.5231135,319.0,51.0,55.0,-259.0,950.0,700.0,-1.1408108,1.0846632,0.77517587,0.7235645,-2.7640522,0.7329366,4.0718846,0.5069384,1.3779742,-0.15037605,0.9206464,-0.5999362,-0.3845588,0.6444469,0.08753522,-0.7789142
256,-10.0,-5.0,0.0,38.0,-6.0,1003.0,2.6322873,4.0455456,2.7931712,4.131015,2.2762952,9.370677,8.6702,6.4427943,4.767274,6.396265,5.1891766,3.5957768,2.931179,2.893936,1.6430112,1.5452119,390.0,105.0,54.0,-149.0,-26.0,1982.0,-0.95849884,0.5892044,0.77517587,0.7235645,-2.7640522,0.40028092,3.977166,0.47855392,1.3092324,-0.28699034,0.9206464,-0.4934752,-0.26711157,0.40424585,0.8390317,-0.42141443
257,-31.0,19.0,7.0,38.0,-14.0,1048.0,5.846939,8.489163,4.092242,5.1151457,4.435903,19.593073,19.57432,11.991678,4.767274,2.9142385,4.4578032,0.8622928,0.2913384,0.7363365,-0.49379984,0.95922124,392.0,99.0,65.0,-285.0,-170.0,2364.0,-1.0499684,1.0846632,0.7735506,0.69159395,-2.7640522,0.3338313,3.977166,0.523243,1.3298384,-0.28699034,0.9274927,-0.38909772,-0.14720464,0.47162265,0.65822107,-1.1498079
258,-48.0,4.0,6.0,-14.0,-32.0,1060.0,6.591717,9.734907,4.927692,5.9680877,4.948769,22.057037,25.443567,15.847805,3.411361,2.606189,2.8777246,0.0060154353,0.2913384,0.57467,-0.59939283,0.91290903,188.0,238.0,14.0,343.0,-3098.0,2624.0,-1.1408108,0.79405826,0.7735506,0.75602806,-2.7640522,0.13464636,4.000637,0.62470526,1.3298384,-0.015593896,0.91407496,-0.5999362,-0.14720464,0.43781045,1.3579235,-1.3403915
259,-67.0,0.0,12.0,47.0,-65.0,1086.0,7.263862,10.372899,5.9335003,7.0597734,4.816654,26.635328,30.281221,18.010633,3.0446296,2.2313905,2.178656,-0.11616254,0.50728446,0.78896344,-0.49379984,0.95922124,-276.0,-154.0,74.0,691.0,-1921.0,-427.0,-0.6812132,0.8930551,0.77517587,0.75602806,-2.0387714,0.5997927,4.1444016,0.54091585,1.2908818,2.6407595,1.3611367,0.0083313575,4.0596466,1.8198502,15.556238,8.219961
260,-118.0,-5.0,1.0,3.0,-142.0,1190.0,7.4697533,11.89561,7.5336604,11.199355,4.1950126,32.840195,33.10981,19.902836,1.9182317,1.8004907,1.2047257,-0.11616254,0.39694083,0.23265727,-0.18184212,0.6875268,-268.0,-104.0,70.0,329.0,-54.0,1716.0,0.15836105,1.1774578,0.8720865,0.788982,-2.320026,0.5332616,4.095915,0.4395487,1.2316191,4.0069466,0.97752035,0.19552408,10.42841,4.1639304,35.262207,30.183367
261,-412.0,1.0,89.0,652.0,-415.0,1782.0,3.9813719,6.7090483,9.980958,12.954335,1.7401323,10.295638,9.345675,13.991202,2.1367946,0.7412056,0.991665,0.12608112,0.68147284,0.17301486,-0.18184212,0.6875268,-304.0,-174.0,-8.0,198.0,-13.0,2164.0,-0.774036,0.9898924,0.7750686,0.82242346,-2.4650414,0.5332616,4.0479956,0.4395487,1.2329419,8.461326,1.4029105,0.46275258,25.079643,10.849607,29.406918,22.629671
262,-468.0,-130.0,110.0,694.0,-1151.0,2778.0,3.6031992,3.7253573,5.5941386,5.4414783,1.0115192,7.4053926,6.8767486,6.054501,2.1946344,1.0224552,0.9924446,0.4746641,0.50728446,0.112566754,-0.07942656,0.6875268,-26.0,-36.0,8.0,-21.0,-35.0,1370.0,-0.3078242,0.79405826,0.7735506,1.0331625,0.28769568,1.668151,4.1200867,0.45600685,1.6832922,9.374504,3.4589937,3.2814074,24.746624,13.643092,25.35775,17.247482
263,-520.0,-16.0,121.0,49.0,-714.0,4086.0,1.5391406,2.2739806,2.1223402,2.9759593,0.01652525,3.712368,4.463187,2.3036432,1.196416,0.7950735,1.0555149,0.06630566,0.8032392,0.23265727,-0.59939283,0.64371467,-3.0,-9.0,0.0,7.0,-6.0,1034.0,0.7071733,1.6148312,0.7968964,1.0331625,-0.4744062,3.016225,4.5804095,0.7005093,1.3618737,8.461326,3.2314227,3.9611235,22.47808,12.7383795,20.867828,12.980012
264,-270.0,-68.0,185.0,1244.0,2353.0,3175.0,0.14972906,0.91916835,0.95407593,-0.11327149,-0.54407275,2.4539425,3.5628576,0.6866062,1.3134402,0.27855557,1.100041,0.06630566,0.68147284,0.0512933,-0.07942656,0.7764276,-1.0,4.0,0.0,-8.0,24.0,1011.0,2.2005153,1.9377016,0.8720865,0.82242346,0.84932375,3.6975963,5.795915,2.3989086,1.4596487,7.8028865,3.3066435,4.04695,13.425876,7.9031672,6.676417,6.9006515
265,410.0,102.0,-7.0,576.0,677.0,1262.0,0.08343187,0.87324756,1.0260649,0.1719577,-0.9739776,2.0761762,3.2333996,0.48530015,2.0083463,0.3590551,1.1570392,0.06630566,0.50728446,0.0512933,0.022221994,0.64371467,-6.0,3.0,-1.0,-15.0,21.0,1008.0,3.0240164,3.1494818,1.186192,1.1830697,1.2635258,4.2473493,6.1834645,4.424669,1.516997,7.0780916,3.1568682,3.8333952,8.016843,5.5363827,4.823374,5.681749
266,404.0,-91.0,-44.0,38.0,120.0,2162.0,0.26207143,0.87324756,0.95407593,0.07808286,-0.66044307,2.4539425,3.062081,0.45960155,1.9321578,0.27855557,1.1570392,-0.17807701,0.5642031,-0.010825335,-0.18184212,0.82150817,-6.0,0.0,-4.0,-13.0,20.0,988.0,2.765928,4.718418,1.3899724,1.5469275,0.99380946,5.08153,6.6750207,6.438894,1.6129763,7.6230106,3.1568682,3.1510415,5.053255,4.861711,3.942286,5.12793
267,420.0,-116.0,-35.0,116.0,-363.0,2876.0,0.14972906,0.8282364,0.9770462,-0.016990552,-0.90856284,0.98210907,3.062081,0.45960155,1.7918508,0.3179901,1.2269567,-0.30362397,0.45152625,0.40694413,0.123114325,0.82150817,-9.0,0.0,-6.0,-18.0,0.0,993.0,4.0838933,5.3901453,2.2713938,2.086611,1.7877057,6.144296,8.105545,8.597048,1.8797586,7.382074,3.5360787,3.4525232,1.9181497,3.7210658,2.5442617,3.469057
268,362.0,-139.0,-51.0,-11.0,-1585.0,2998.0,0.115675956,0.91916835,0.9770462,-0.016990552,-0.48770285,1.6313276,3.1470196,0.48530015,1.9321578,0.3179901,1.2669028,-0.17807701,0.68147284,0.23265727,-0.28503552,0.6875268,-15.0,-4.0,-8.0,-25.0,-2.0,1021.0,4.567982,6.901229,2.6905167,2.6847296,1.8906882,7.3828607,9.501215,11.471144,2.1511,6.45488,3.4589937,3.018198,0.55420226,2.45309,0.7491641,2.3735516
269,231.0,-106.0,-6.0,-579.0,-2888.0,2323.0,0.115675956,0.91916835,0.9321551,-0.11327149,-0.12420734,1.179053,3.2333996,0.511785,1.6671574,0.3179901,1.037792,-0.17807701,0.2913384,0.17301486,-0.28503552,0.6875268,-44.0,-22.0,-19.0,-21.0,-35.0,1211.0,5.5747833,11.489912,3.7265341,4.920327,2.6934242,14.257199,18.691967,23.839785,2.4567375,3.837927,2.0749316,-0.088089146,0.037163474,1.0094075,-0.21597317,-0.24757458
270,57.0,1.0,-4.0,-803.0,-3976.0,1310.0,0.115675956,0.87324756,0.95407593,0.07808286,-0.27362347,1.4385979,3.2625175,0.45960155,1.9321578,0.5387615,1.037792,-0.17807701,0.34354064,0.23265727,0.6166038,2.2930067,-102.0,-8.0,-21.0,49.0,-46.0,1255.0,5.8351984,11.732511,3.9698658,6.2794514,2.8684406,17.116222,25.085752,32.930317,1.8382001,2.739519,1.5374354,-0.28676605,0.42157438,0.8602836,0.3785097,-0.7789142
271,-201.0,67.0,-25.0,-236.0,-3440.0,251.0,0.14972906,0.8282364,0.95407593,0.07808286,-0.17300975,1.0479956,3.1185477,0.41060627,1.9321578,1.1427956,1.100041,-0.11616254,2.3308513,1.3319384,12.499001,10.611171,-156.0,-12.0,-16.0,8.0,-89.0,1341.0,5.480401,9.85581,4.9113116,7.1484056,1.9893855,16.097649,20.537241,33.52324,1.5476893,1.0000433,1.145336,-0.5999362,0.75722075,0.7153573,-0.42593798,-0.9626641
272,-152.0,96.0,-20.0,-33.0,449.0,1301.0,0.18552329,0.8282364,1.0010482,0.7105949,0.01652525,1.179053,3.0902352,0.30264163,1.8600168,1.4608864,1.0021396,-0.6281419,5.8194394,3.1385634,37.897068,38.66407,-217.0,-20.0,-29.0,-170.0,-197.0,1671.0,4.746032,6.2847457,3.9698658,8.28754,0.9224014,8.359998,12.093508,25.926012,1.3411214,-0.15037605,0.9954594,-0.70851856,0.55420226,0.6093758,0.08753522,-0.7789142
273,-348.0,28.0,18.0,-41.0,211.0,2481.0,0.18552329,0.8282364,1.0010482,0.96459174,0.27496618,1.2442449,2.8964322,0.32253042,1.508163,2.2313905,0.9924446,-0.6281419,18.939194,7.0846324,36.929157,40.721382,-365.0,-69.0,-99.0,-530.0,-271.0,2001.0,4.7803626,3.3502357,3.5467043,6.709104,-1.3849128,5.0115213,8.201496,15.190886,1.2207155,-0.15037605,0.9173196,-0.38909772,0.75722075,0.6797736,0.4729377,-0.7789142
274,-125.0,88.0,-7.0,30.0,36.0,1301.0,0.115675956,0.7841428,1.0260649,0.7105949,0.31537306,1.2442449,3.062081,0.2836273,1.4394279,5.420509,1.2706093,0.36030018,26.93928,10.381941,28.981894,30.891243,-473.0,4.0,-147.0,-582.0,-560.0,2665.0,3.4369714,2.8788168,2.4771082,1.5895666,-1.9024504,3.016225,6.7540383,8.277246,1.3092324,0.75618774,0.961709,0.10285662,0.29116505,0.8602836,0.5661601,-0.9626641
275,-14.0,10.0,-4.0,-8.0,20.0,1094.0,0.3883432,0.9659907,0.95407593,0.96459174,1.5555837,2.830355,3.1185477,0.71829695,2.6314816,6.476911,2.5139832,1.9436258,25.234432,11.599948,23.219362,23.699646,-448.0,-75.0,-144.0,-512.0,-197.0,3259.0,1.1487815,1.858927,0.94815916,0.85634995,-2.9181287,1.4672487,4.689495,2.851413,1.4356092,0.24858661,0.91615796,-0.4934752,0.037163474,0.6444469,-0.11332944,-0.9626641
276,-9.0,-2.0,-2.0,7.0,18.0,1004.0,1.727164,2.4070313,2.0745327,2.9759593,2.2045653,10.381583,8.204473,5.925775,5.442913,7.8259044,5.4701347,3.1856108,7.6479983,4.941812,3.8082244,4.274434,-328.0,-139.0,-132.0,-604.0,2742.0,2774.0,-1.0499684,0.79405826,0.83362854,0.568696,-2.9181287,0.93285894,4.500264,0.6487849,1.3092324,-0.28699034,0.91407496,-0.5999362,-0.14720464,0.6444469,0.08753522,-0.42141443
277,-11.0,-5.0,0.0,14.0,9.0,1001.0,2.5669734,4.2090483,2.6308188,3.0906577,2.3869514,9.786478,10.615219,7.7572045,7.1722584,8.444658,5.8491964,2.8345199,4.250244,3.2208376,1.1860161,1.6999571,302.0,60.0,27.0,-106.0,746.0,751.0,-1.1408108,0.5892044,0.83362854,0.69159395,-3.0753064,0.93285894,4.095915,0.47855392,1.3092324,-0.5658293,0.9144459,-0.8192602,-0.3261457,0.6444469,0.18585505,0.09050758
278,-7.0,-8.0,0.0,10.0,10.0,1005.0,2.9584885,5.0587335,3.303518,3.4745047,3.2838058,14.170883,14.311973,9.237313,6.9985046,8.5212555,8.278443,2.1914272,1.6980313,2.0363848,0.6166038,1.1005566,348.0,75.0,46.0,-62.0,454.0,981.0,-1.1408108,0.692807,0.7897148,0.69159395,-2.7640522,0.3338313,4.0242467,0.523243,1.3298384,-0.4254652,0.91407496,-0.4934752,-0.20746252,0.6444469,0.5661601,-1.1498079
279,-5.0,-8.0,2.0,26.0,5.0,1008.0,3.730115,7.094403,3.843906,3.3131433,3.9643826,18.02688,20.561869,11.191727,7.085387,7.3548875,7.3979635,1.993321,0.74179983,1.237611,0.022221994,0.91290903,366.0,97.0,62.0,-165.0,68.0,1449.0,-1.0499684,1.0846632,0.8080829,0.75602806,-2.7640522,0.3338313,4.0242467,0.523243,1.2908818,-0.15037605,0.9274927,-0.4934752,-0.14720464,0.5056839,1.9272367,-0.7789142
280,-19.0,-1.0,5.0,31.0,-2.0,1025.0,4.4723735,8.083775,4.6017094,3.579716,5.083484,24.413374,24.389093,14.562842,7.1722584,5.5022545,6.136271,0.9698516,0.45152625,0.5194591,-0.38901776,0.82150817,373.0,105.0,44.0,-193.0,-161.0,1982.0,-0.95849884,0.5892044,0.77350503,0.7235645,-2.7640522,0.3338313,4.0479956,0.523243,1.2908818,-0.015593896,0.9274927,-0.5999362,-0.20746252,0.6444469,0.4729377,-1.3403915
281,-50.0,-8.0,7.0,13.0,-9.0,1175.0,5.7376695,9.003039,4.731459,4.08248,6.5719824,26.501413,34.924786,17.228735,6.7378664,3.2281487,5.09625,0.18535511,0.2913384,0.29151344,-0.59939283,0.91290903,372.0,111.0,56.0,-459.0,-327.0,2368.0,-1.4086262,1.1774578,0.7980176,0.7235645,-2.9181287,0.3338313,4.0242467,0.54091585,1.2747478,-0.15037605,0.9206464,-0.5999362,-0.3845588,0.47162265,0.7491641,-1.1498079
282,-69.0,1.0,11.0,27.0,-40.0,1131.0,6.5394697,10.159192,4.472866,4.6516476,8.21317,33.945942,41.681232,19.3575,5.699836,2.8366272,3.1867063,-0.24055967,0.34354064,0.68309057,-0.81305677,0.6875268,343.0,158.0,22.0,-776.0,-767.0,2568.0,-1.2309331,0.5892044,0.7968964,0.69159395,-2.7640522,0.26740894,3.9538326,0.523243,1.2607923,-0.015593896,0.9274927,-0.9321988,-0.20746252,0.47162265,0.92786545,-1.1498079
283,-96.0,-8.0,5.0,-14.0,-81.0,1154.0,6.9031663,10.695339,5.5941386,5.1151457,9.451567,38.167736,45.24506,20.925844,4.1119967,2.3053195,2.178656,-0.24055967,0.8032392,0.7363365,-0.18184212,0.7764276,242.0,231.0,-6.0,1.0,-2196.0,3626.0,-1.2309331,0.9898924,0.7830491,0.7235645,-3.0753064,0.3338313,3.9538326,0.6018505,1.3298384,-0.15037605,0.91407496,-0.4934752,-0.3261457,0.33785346,1.7678958,-1.1498079
284,-288.0,22.0,46.0,237.0,-218.0,1697.0,5.57214,11.019956,9.980958,10.570755,1.6164753,14.368843,15.541563,19.143757,2.3752713,0.5873412,1.037792,-0.30362397,0.8032392,0.29151344,-0.49379984,0.64371467,158.0,198.0,31.0,1215.0,-3349.0,2292.0,-1.1408108,0.692807,0.8164951,0.7235645,-2.320026,0.26740894,4.0718846,0.6740619,1.3298384,-0.15037605,0.91615796,-0.8192602,-0.26711157,0.37092736,0.8390317,-0.7789142
285,-442.0,-9.0,106.0,646.0,-470.0,1960.0,4.2901387,6.143101,9.035407,7.227867,0.91704494,9.95496,8.035142,12.363215,1.8669722,1.2045084,1.0021396,0.18535511,0.99411494,0.4635567,-0.28503552,0.73176587,-331.0,-137.0,3.0,540.0,-8.0,2213.0,-0.774036,0.79405826,0.7830491,0.75602806,-2.320026,0.40028092,4.0242467,0.43368348,1.2207155,5.025509,1.0154818,-0.088089146,16.032925,6.848053,31.24012,25.507616
286,440.0,-39.0,-15.0,374.0,76.0,1293.0,0.18552329,0.87324756,1.0260649,0.07808286,-0.60164267,1.6313276,3.1470196,0.41060627,2.0083463,0.3179901,1.1570392,0.0060154353,0.39694083,0.23265727,-0.28503552,0.82150817,-128.0,-112.0,3.0,-161.0,62.0,1541.0,-0.774036,0.8930551,0.77827114,0.82242346,-2.0387714,0.46675768,4.0718846,0.45600685,1.3219043,8.281475,1.5852243,0.71459866,25.246998,11.266851,22.68226,16.785275
287,392.0,-108.0,-74.0,504.0,-125.0,1622.0,0.08343187,0.87324756,0.95407593,0.07808286,-0.60164267,1.0479956,3.1185477,0.32253042,2.0886557,0.24079579,1.2669028,-0.11616254,0.8032392,0.40694413,-0.07942656,0.60033345,-16.0,-27.0,2.0,22.0,-5.0,1147.0,-0.49478763,0.8930551,0.77517587,0.96101207,0.28769568,1.9364908,4.0718846,0.49203193,1.4330477,8.6417885,3.1568682,3.2814074,24.58096,14.013314,21.585253,14.549854
288,398.0,-154.0,-37.0,549.0,-49.0,2428.0,0.115675956,0.87324756,0.9321551,-0.016990552,-0.54407275,1.3740072,3.062081,0.32253042,1.8600168,0.24079579,1.1269534,-0.30362397,0.24034686,0.0512933,-0.28503552,0.64371467,-2.0,0.0,-1.0,-11.0,25.0,1000.0,0.7071733,1.6148312,0.82838345,0.89075863,0.5395253,3.2880745,5.3062825,1.179462,1.487641,8.4013195,3.8499825,4.2208714,18.403727,11.776812,10.940836,7.908434
289,289.0,-242.0,-81.0,-31.0,-2542.0,3017.0,0.18552329,0.91916835,0.9321551,0.1719577,-0.3784427,1.179053,3.1185477,0.32253042,1.8600168,0.3590551,1.1570392,-0.05480285,0.24034686,0.40694413,-0.18184212,0.7764276,-19.0,-3.0,-8.0,-26.0,5.0,1033.0,4.567982,7.7500224,3.080184,2.279695,2.1300063,8.589698,10.317046,9.96443,2.0108526,6.707174,3.929746,2.2915606,0.55420226,1.7767159,0.18585505,3.369534
290,139.0,-114.0,-74.0,-969.0,-3847.0,1767.0,0.14972906,0.91916835,0.95407593,-0.016990552,0.19197413,1.3092263,3.2333996,0.38733146,1.8600168,0.3590551,1.1269534,-0.11616254,0.2913384,0.112566754,-0.38901776,0.86700326,-45.0,-8.0,-18.0,-70.0,-59.0,1266.0,5.543183,11.130044,3.4282095,3.9800036,2.7646146,14.163595,20.17789,18.893696,2.199781,4.4142222,2.3877184,0.19552408,0.29116505,1.085563,0.5661601,-0.42141443
291,-81.0,62.0,-52.0,-1063.0,-4363.0,1472.0,0.115675956,0.91916835,0.95407593,0.35614976,-0.029468155,1.2442449,3.1756516,0.45960155,1.7275879,0.7412056,1.0145017,-0.11616254,0.99411494,0.84098905,5.862534,4.531606,-79.0,0.0,-19.0,18.0,-59.0,1155.0,5.9031014,10.5416565,3.5467043,4.599022,3.0025,18.495607,26.606121,24.272049,2.199781,3.1228504,1.7901826,-0.088089146,0.42157438,0.9343169,0.18585505,-0.07694865
292,-163.0,130.0,-86.0,56.0,78.0,1107.0,0.053066228,0.91916835,0.9321551,0.07808286,-0.029468155,1.0479956,3.1756516,0.41060627,1.6671574,1.3308556,1.037792,-0.30362397,4.96378,2.202734,21.458916,18.32694,-171.0,-9.0,-15.0,-33.0,-160.0,1441.0,5.6706624,8.872175,4.593139,7.3716063,1.5096245,12.442611,16.616753,24.12708,1.3411214,1.0000433,1.145336,0.0083313575,1.0353336,0.7153573,-0.21597317,-1.3403915
293,-320.0,81.0,-14.0,-442.0,83.0,2213.0,0.18552329,0.8282364,1.052079,0.7963677,0.10589952,0.9159696,3.0062442,0.43469995,1.5575138,2.013074,0.99799067,0.12608112,15.783008,5.3060136,31.545551,35.02497,-305.0,-33.0,-67.0,-476.0,-277.0,1954.0,4.746032,5.1607394,4.404167,7.597141,-0.17236343,6.0726457,8.647531,17.703451,1.2405494,-0.015593896,0.91407496,-0.70851856,1.0353336,1.0473517,0.08753522,-1.7320627
294,-131.0,102.0,-7.0,164.0,39.0,1598.0,0.3026972,0.8282364,1.0260649,0.7105949,0.39413992,1.0479956,3.0340843,0.32253042,1.7219117,7.1965947,1.3065118,-0.17807701,26.252832,8.333723,27.31166,28.545958,-425.0,8.0,-197.0,-740.0,664.0,3920.0,-0.21431808,1.2683654,0.90766317,0.66011906,-2.7640522,1.5341839,4.318669,1.2204866,1.4680909,-0.15037605,0.9144459,-0.8192602,0.099798664,0.57455915,0.08753522,0.729508
295,-3.0,-2.0,0.0,6.0,25.0,1003.0,0.9453843,1.4820763,1.2281787,0.8810291,2.0998187,6.1713905,5.8092275,1.3563265,4.0319843,9.502629,3.9309268,2.339589,19.71499,7.622569,11.217472,11.321423,78.0,-34.0,68.0,-299.0,3694.0,-1501.0,-0.86649245,0.48315126,0.7980176,0.6291427,-3.2356255,1.0662806,4.1688595,0.54091585,1.4680909,-0.015593896,0.91615796,-0.38909772,-0.20746252,0.5056839,0.08753522,-0.7789142
