,left.ang.y,left.ang.z,left.acc.x,left.acc.y,left.acc.z,left.forces.0,left.forces.1,left.forces.2,left.forces.3,left.forces.4,left.forces.5,left.forces.6,left.forces.7,left.forces.8,left.forces.12,left.forces.13,left.forces.14,left.forces.17,left.forces.18,left.forces.21,left.forces.22,left.totalForce,right.ang.y,right.ang.z,right.acc.x,right.acc.y,right.acc.z,right.forces.0,right.forces.1,right.forces.2,right.forces.3,right.forces.4,right.forces.5,right.forces.6,right.forces.7,right.forces.8,right.forces.12,right.forces.13,right.forces.14,right.forces.17,right.forces.18,right.forces.21,right.forces.22,right.totalForce
0,0.0,0.0,22.4,3.0,1018.0,0.59960914,1.4228159,2.639315,5.0355997,8.084956,9.369655,6.2260475,4.98197,1.2363557,5.15518,4.58466,2.3668404,25.387054,13.916418,13.50822,10.921859,115.436554,0.0,0.0,-20.0,25.5,1021.0,4.342384,4.053212,16.439898,9.546821,3.8341832,8.684,6.4434175,4.920232,4.03032,10.4019,8.915072,7.9039965,32.329178,18.01643,18.25478,18.64031,176.75612
1,0.0,0.0,21.4,4.0,1018.0,0.5327565,1.4010928,2.639315,4.7143884,7.8983483,9.467701,6.038845,4.7856073,1.3475108,4.9451647,4.4294615,2.3668404,25.953148,14.5526705,14.433276,11.696386,117.20251,0.0,0.0,-18.0,24.5,1019.0,3.9998336,4.053212,16.439898,9.942344,3.408886,8.163887,6.51517,4.920232,3.8177493,9.806448,8.54639,6.912868,30.958359,16.572126,17.686712,18.431156,170.17525
2,0.0,0.0,20.4,4.0,1019.0,0.93683517,1.3928107,2.3748534,4.3932986,7.991499,9.075017,5.6101804,3.9165614,1.1816128,5.2960753,4.739201,2.6772976,28.22093,14.126131,14.199075,13.676673,119.80805,0.0,0.0,-19.0,25.5,1021.0,3.935926,4.053212,15.817815,9.161126,3.3379114,8.684,6.020869,4.2372613,3.7651117,10.028016,8.619705,6.975687,30.272303,16.572126,17.912832,17.609264,167.00316
3,0.0,0.0,20.4,5.0,1018.0,1.0047917,1.4010928,2.639315,4.313142,8.084956,9.369655,5.1902122,4.542365,1.0738378,5.225538,4.5071473,2.5217285,28.410166,15.098936,14.199075,13.398643,120.980606,0.0,0.0,-21.0,24.5,1021.0,3.6591568,3.9710166,15.945486,8.534443,3.124446,7.854903,6.3011627,3.9797456,3.401737,9.153207,8.619705,7.1666827,29.757385,16.453169,17.127491,17.71075,162.7605
4,0.0,0.0,20.4,3.0,1016.0,0.7339428,1.4361948,2.639315,4.3932986,8.461782,8.680824,5.7316175,4.204671,1.1274375,5.225538,5.123119,2.9919412,26.708466,15.433522,14.669403,12.490665,120.05174,0.0,0.0,-20.0,22.5,1024.0,3.8699508,4.053212,16.071497,8.225878,3.408886,8.893869,6.4434175,4.043272,3.6604078,9.659834,8.915072,7.1666827,29.929062,16.334452,17.127491,17.71075,165.51373
5,0.0,0.0,19.4,4.0,1018.0,0.8690342,1.4228159,2.3748534,4.6340737,8.461782,9.271527,5.6101804,4.834533,1.1274375,5.3667946,5.3521256,2.8864205,27.464388,15.546169,14.315933,13.676673,123.214745,0.0,0.0,-20.0,25.5,1020.0,3.8018618,4.3049445,16.439898,8.287441,3.3379114,9.63676,6.587373,3.9797456,3.7651117,9.369128,9.365065,7.427716,30.958359,16.572126,16.795883,17.106987,167.7363
6,0.0,0.0,17.4,2.0,1018.0,0.8690342,1.4678346,3.4092658,3.9934123,8.084956,9.271527,5.7316175,5.4315586,1.1816128,5.5087843,5.123119,2.8864205,26.14192,14.878706,13.622124,11.958865,119.56076,0.0,0.0,-20.0,25.5,1022.0,3.935926,4.1780777,16.677794,8.472557,3.479803,9.52983,6.806917,4.303055,3.870584,9.51407,9.440945,7.5611663,31.129793,16.69132,16.576351,17.007538,169.17572
7,0.0,0.0,16.4,1.0,1018.0,0.80139965,1.4361948,2.8998287,4.313142,8.178718,9.369655,5.7316175,5.280328,0.9684,5.2960753,5.580385,2.8864205,25.198433,14.76945,13.394816,12.135101,118.23996,0.0,0.0,-21.0,24.5,1020.0,4.2356935,4.3476996,17.247433,8.9084425,3.408886,9.743959,7.1838465,4.640408,3.870584,9.880081,9.593509,7.7652397,32.329178,17.652676,16.795883,17.106987,174.71051
8,0.0,0.0,18.4,3.0,1017.0,0.93683517,1.451211,2.639315,4.313142,7.8983483,9.467701,5.915283,5.380981,1.0738378,5.225538,5.2758837,3.044984,24.632803,14.231881,12.397165,11.871124,115.75603,0.0,0.0,-20.0,22.5,1022.0,4.5791016,5.16248,18.584204,10.986293,3.6923985,11.72053,7.986108,5.6575117,4.746496,11.962485,11.862597,9.179819,33.185562,18.748598,18.02644,18.64031,194.72092
9,0.0,0.0,17.4,4.0,1019.0,0.4661301,1.4361948,3.156458,4.313142,6.1060457,8.18546,5.7316175,5.031354,0.76482123,4.2560835,4.351594,2.3152947,22.374056,13.402682,11.650602,10.248678,103.790215,0.0,0.0,-20.0,23.5,1021.0,4.6216373,5.114766,19.323877,11.059143,3.7632735,11.60835,8.326982,6.6108966,4.466122,11.881739,12.12266,10.553007,32.843006,19.363073,19.539799,17.609264,198.80759
10,0.0,0.0,15.4,5.0,1020.0,0.7339428,1.4228159,2.8998287,3.834313,5.9349394,7.3852043,4.95273,5.635671,0.61881757,3.5162926,4.0381336,2.0058224,18.627,11.502768,8.068382,6.395212,87.57187,0.0,0.0,-19.0,21.5,1020.0,4.9414277,5.2588453,19.052696,12.209006,3.9761772,12.058773,9.044889,8.173625,5.327815,12.453562,12.925235,11.208643,33.870842,19.98118,20.020535,18.120232,208.62347
11,-1.0,0.0,17.4,5.0,1023.0,0.399743,1.4111049,2.8998287,3.67591,5.849991,7.686548,5.3693614,5.5332437,0.81478083,2.9894924,4.2735367,2.1606967,10.900143,8.494567,4.6822953,3.367342,70.50858,-1.0,0.0,-18.0,23.5,1022.0,4.9110303,5.657289,19.675297,12.701578,4.3329597,12.39958,8.952489,8.822131,5.6295424,13.126836,13.386265,12.513684,35.93103,20.2294,20.263853,17.71075,216.24373
12,-4.0,0.0,17.4,7.0,1039.0,0.399743,1.4678346,3.9036653,4.7143884,6.8059382,9.467701,7.2028112,7.0536923,0.71550095,2.5360622,3.8006952,2.0058224,2.6174414,4.982323,1.7075212,1.0098207,60.390953,-2.0,0.0,-20.0,23.5,1018.0,5.0518126,5.9173584,20.183817,15.181528,4.6212745,13.321072,9.422087,10.1842,6.065173,13.55904,14.244845,13.9271345,37.13912,19.98118,21.258255,19.063246,229.12114
13,-2.0,1.0,38.4,2.0,1131.0,0.80139965,2.0100853,4.383518,6.2304053,6.5406566,10.444841,8.337931,7.9645166,0.61881757,1.5263038,2.3188443,0.9873286,-0.214333,2.2527668,1.1051883,1.0098207,56.318085,-3.0,0.0,-16.0,24.5,1018.0,5.20736,5.9173584,20.183817,14.304566,5.209476,13.437566,9.7129,9.9844265,6.451353,14.451641,14.838573,14.729973,38.355183,20.852352,24.196394,21.27904,239.11198
14,17.0,7.0,37.4,24.0,1506.0,1.2094904,1.5498159,4.8493066,5.3562155,5.185519,6.4703407,6.934941,5.895278,0.3890055,1.2187611,0.50234115,1.155452,-1.259377,1.6429563,0.97711205,0.89564586,42.972805,-4.0,0.0,-13.0,26.5,1022.0,5.187723,5.708606,20.674437,15.282218,4.83981,13.08896,10.21239,11.104106,7.5417814,15.867069,15.450013,16.663431,39.23043,21.604475,26.253248,21.394648,250.10336
15,6.0,19.0,182.4,-33.0,1549.0,0.20215318,1.5498159,4.618141,4.3932986,3.7984998,3.247595,2.276305,2.2604196,0.302065,0.85519475,0.20894347,1.3741843,-1.1122148,0.9721238,1.1051883,0.67060435,26.722317,-3.0,0.0,-11.0,26.5,1026.0,5.261771,5.9704313,21.151867,15.795602,4.9867973,13.437566,10.21239,11.000217,7.470974,15.7696705,15.65785,18.062641,39.406277,21.982481,27.665878,22.21803,256.05045
16,29.0,27.0,116.4,-50.0,1417.0,-0.12105367,1.4015145,3.156458,3.518355,3.4425154,2.32476,1.5449959,1.1016273,0.47883815,0.85519475,0.10972824,0.9873286,-1.9840063,1.2482224,1.8209734,0.89564586,20.781097,-1.0,0.0,-10.0,26.5,1024.0,5.379491,6.408145,20.99391,16.218363,5.4350705,14.380116,11.156194,10.588842,7.5417814,15.964918,16.401482,18.978691,39.406277,21.85633,27.028763,22.21803,259.95642
17,24.0,37.0,684.4,860.0,1143.0,-0.12105367,1.392743,1.5571373,2.0991518,3.583285,2.4419482,1.0709035,0.85157853,0.34516808,0.85519475,0.009782744,0.9873286,-1.5514921,0.6851398,1.4738523,0.9525972,16.633266,0.0,0.0,-8.0,27.5,1023.0,5.366593,6.1863384,20.99391,16.218363,5.7409024,14.738479,10.624946,11.4182625,8.121298,16.461035,16.186419,19.243757,39.23043,22.108784,25.499924,21.980204,260.11963
18,-11.0,37.0,433.4,924.0,497.0,-0.12105367,1.4123539,1.5571373,2.2390532,3.3039527,2.6747057,0.9889792,0.8019734,0.2597078,0.7354111,0.10972824,0.7565612,-1.5514921,0.8300213,1.4738523,0.89564586,16.366535,0.0,0.0,-9.0,27.5,1023.0,5.353236,6.810922,21.23047,15.282218,6.1321545,14.499271,11.593066,10.691058,8.41985,16.461035,16.948376,20.725754,39.054867,22.488628,25.204565,21.27904,262.17453
19,-38.0,21.0,362.4,975.0,669.0,-0.057094596,1.4252973,2.10638,2.0303466,3.1676314,2.6747057,0.9061793,0.90133876,0.3890055,0.616364,-0.29457092,0.81503147,-1.696427,0.6851398,1.9322779,1.3587639,16.96037,0.0,0.0,-8.0,26.5,1022.0,5.353236,6.578458,21.465021,16.433804,5.8961544,14.97889,11.815286,13.0445795,8.269836,16.360884,18.433607,21.965733,38.87957,20.852352,24.196394,19.928507,264.4523
20,-69.0,-41.0,107.4,575.0,986.0,-0.12105367,1.4123539,1.5571373,1.962352,3.2355096,2.905368,0.8224875,0.85157853,0.3890055,0.616364,-0.19235316,0.6379173,-1.1122148,0.5374208,1.7075212,1.0098207,16.219215,0.0,0.0,-8.0,26.5,1022.0,5.4381127,7.29473,21.852877,16.433804,6.534341,15.585232,11.156194,12.165737,8.956601,15.7696705,19.64036,23.227493,38.355183,21.604475,22.28961,19.277086,265.5815
21,-58.0,-41.0,-43.6,80.0,1356.0,-0.12105367,1.4123539,1.5571373,1.828939,2.8368583,3.0199368,0.8224875,0.6542564,0.21810819,0.55712366,-0.29457092,0.7565612,-1.4058058,0.6851398,1.5918413,1.2413958,15.36071,0.0,0.0,-9.0,25.5,1020.0,5.391959,7.804355,21.775524,18.496944,5.7409024,16.9464,12.611747,14.645573,8.344659,15.576214,21.034729,24.796505,38.18085,21.73033,21.385067,18.431156,272.8929
22,-63.0,-7.0,-71.6,-11.0,1667.0,-0.18463928,1.4123539,1.8338296,1.5122175,2.7086477,2.4419482,0.9061793,0.8019734,0.43356588,0.55712366,-0.090906516,0.7565612,-1.696427,0.38680553,1.5918413,0.89564586,14.266722,0.0,0.0,-7.0,24.5,1021.0,5.4796553,8.548332,22.780336,19.360588,5.818326,18.475466,13.554581,15.717689,8.956601,16.063221,21.959625,26.540098,38.00674,20.60276,21.258255,18.535545,281.6578
23,-31.0,-21.0,-83.6,-434.0,1593.0,-0.12105367,1.4123539,1.5571373,1.828939,2.5828276,2.6747057,0.9061793,0.9512385,0.3890055,0.55712366,-0.090906516,0.6379173,-1.696427,0.38680553,2.2540789,0.89564586,15.125571,1.0,0.0,-7.0,18.5,1024.0,5.574408,11.341644,25.057178,27.199163,7.1174088,23.368244,16.291346,24.619402,10.763879,17.279406,29.647058,35.232662,38.18085,21.102497,21.769049,17.508127,332.05234
24,-22.0,-36.0,89.4,-1233.0,892.0,-0.18463928,1.392743,1.5571373,1.962352,2.7086477,2.7902942,0.9889792,0.8019734,0.2597078,0.4980761,0.10972824,0.69753146,-1.696427,0.23323463,1.8209734,0.78256816,14.722879,2.0,0.0,-10.0,16.5,1029.0,5.775376,12.944259,27.001451,32.27124,8.359752,26.166193,20.125916,29.1196,11.556757,17.913874,33.345623,39.43291,37.312283,21.73033,21.512465,17.71075,362.27878
25,-22.0,-14.0,98.4,-1078.0,828.0,-0.057094596,1.4252973,1.2762367,1.6358266,2.90185,2.5585935,0.8224875,0.9512385,0.302065,0.4980761,0.20894347,0.57769346,-1.696427,0.23323463,1.8209734,0.78256816,14.241562,5.0,0.0,-11.0,9.5,1029.0,5.939984,15.599348,29.478598,37.134567,9.411129,28.824894,24.036646,33.91737,13.141383,17.279406,36.006355,43.724255,36.447994,22.615566,22.553724,18.223503,394.33472
26,111.0,-47.0,124.4,-627.0,913.0,-0.057094596,1.4252973,1.2762367,1.2236229,2.5208235,2.7902942,0.9061793,0.9512385,0.34516808,0.6757941,0.009782744,0.57769346,0.090431996,1.3823326,4.52957,2.5867999,21.23417,22.0,3.0,6.0,-15.5,1158.0,6.885003,20.435055,39.916954,48.82934,12.159809,36.223457,35.071712,45.068954,16.559145,16.063221,38.42157,44.9891,37.48562,28.583616,26.100842,24.072575,476.866
27,-1.0,-52.0,-94.6,85.0,1182.0,-0.12105367,1.4403816,1.5571373,0.75396794,2.4594285,2.6747057,0.65236235,0.6054429,0.34516808,1.1577411,0.009782744,0.57769346,8.932455,5.9274883,16.125679,14.431792,57.530174,8.0,0.0,-39.0,-48.5,1214.0,7.2644706,21.793062,48.327976,54.795414,14.023646,37.203747,42.928787,49.92264,16.559145,14.912846,33.345623,44.140865,41.18249,34.56743,27.990194,29.600922,518.55927
28,60.0,27.0,-1.6,99.0,1503.0,-0.18463928,1.4252973,1.2762367,0.83466864,2.6454368,2.6747057,0.65236235,0.6054429,0.5248113,2.280103,1.1638281,1.155452,28.031736,11.954175,22.755749,21.048548,98.84391,-30.0,-4.0,-32.0,-145.5,1244.0,6.640157,22.17231,64.62715,61.366177,10.321296,37.005688,55.057045,51.569977,10.591944,9.733033,25.965559,40.177074,35.58693,35.426517,23.915365,30.723484,520.8797
29,13.0,0.0,20.4,24.0,1030.0,0.07187854,1.4123539,2.3748534,1.3353382,4.7057757,4.3585997,1.0709035,1.5560683,2.05804,5.651523,3.3997602,1.6934193,38.72679,19.167053,27.938107,23.391394,138.91185,-48.0,-16.0,-135.0,-213.5,1369.0,6.1383886,17.868101,58.587803,60.767845,8.359752,27.241652,42.14641,43.126495,8.956601,7.2094426,17.395525,29.828178,23.73169,25.45824,15.6024685,19.928507,412.34714
30,9.0,0.0,19.4,1.0,1037.0,0.13686086,1.392743,3.156458,2.3817844,6.2787347,6.5728865,1.5449959,1.0513968,2.8352714,6.972685,3.5609717,1.5879712,42.049282,21.405642,34.974106,29.163193,165.06499,-78.0,-55.0,-109.0,-641.5,2015.0,5.7351747,10.755288,26.610163,34.54797,6.2116866,9.63676,11.264445,9.786365,6.065173,5.4808807,6.0575185,8.632694,7.6109324,7.4227285,5.109234,5.4427786,166.36978
31,-1.0,0.0,20.4,5.0,1021.0,0.59960914,1.4123539,2.639315,2.2390532,7.3461127,7.1833773,2.276305,1.4549116,3.8875318,9.018281,4.5071473,2.0575051,44.033443,21.677078,35.179283,29.503061,175.01439,-36.0,-77.0,-319.0,-770.5,1906.0,5.4796553,5.864642,22.625238,16.872883,4.4047523,6.941462,6.160392,4.303055,4.355751,3.3168445,3.6396914,5.3174686,4.281973,5.515101,2.6527193,2.456191,104.18781
32,-2.0,0.0,19.4,4.0,1021.0,0.4661301,1.3784794,3.156458,2.0991518,7.620778,7.1833773,2.0638638,1.3537867,3.3860435,9.686583,4.4294615,1.7458507,43.634533,21.950169,33.767063,28.166964,172.08868,27.0,77.0,-552.0,353.5,360.0,-0.12755027,0.7588746,1.1323595,1.5977693,0.5584241,1.7250491,0.31588864,1.1894958,1.2993598,0.42223722,-1.1658283,-2.2802184,-0.9416559,-0.89137685,1.7773298,1.0188584,6.3890166
33,-3.0,0.0,23.4,3.0,1015.0,0.5327565,1.3812605,3.156458,2.3817844,7.712984,7.7866483,1.5449959,1.3537867,3.7424543,10.201391,4.5071473,1.6407993,41.65537,18.658875,23.348576,20.193968,149.79926,49.0,65.0,-315.0,541.5,503.0,-0.12755027,0.8030891,2.1238034,1.3595916,0.7340273,1.7250491,0.31588864,1.3212813,1.35034,0.42223722,-1.2835648,-1.7871027,-0.83955836,-1.1268923,1.7411377,1.063208,7.7949853
34,-1.0,0.0,25.4,2.0,1012.0,0.5327565,1.3776256,3.4092658,2.3817844,8.651941,8.680824,1.9917939,1.5054903,4.1077757,10.463381,4.9699283,1.6934193,40.283398,18.912048,19.641136,15.8057995,144.40837,75.0,55.0,-57.0,217.5,1032.0,-1.0407807,0.7143662,0.79254365,2.8001044,0.37896746,1.6343597,0.49032196,1.1894958,1.2993598,0.62970644,-1.1658283,-2.2802184,-0.78762144,-0.6632031,1.8349423,1.3765858,7.2031007
35,0.0,0.0,23.4,-13.0,1020.0,1.6217637,1.7485946,5.5226474,4.79471,15.437547,17.193174,12.359911,7.529808,5.9777923,13.071357,9.850383,3.2053804,27.27535,13.101769,10.141022,8.702203,157.53342,78.0,45.0,-63.0,164.5,1380.0,-0.66299367,0.8470152,0.79254365,1.1148473,0.28772232,1.8158207,0.31588864,1.2403457,1.4011596,0.42223722,-1.4025058,-2.1129887,-0.73508847,-1.1268923,1.8152616,1.2416102,5.2539835
36,0.0,1.0,22.4,-15.0,1019.0,1.9671865,2.0520737,4.8493066,4.6340737,18.002369,18.975023,15.1424675,9.595539,5.81482,12.679561,11.199811,3.4775834,20.872149,10.729819,7.901354,7.146698,155.03983,89.0,0.0,43.0,-190.5,2251.0,-0.30195028,1.1048313,0.79254365,2.697799,0.37896746,1.9976285,0.13616565,1.1178664,0.8845624,0.42223722,-0.9338939,-1.9486303,-0.51892686,0.37403148,1.9881066,1.0188584,9.210196
37,-6.0,1.0,26.4,-25.0,1026.0,2.451924,3.4678288,7.9405265,7.0879908,22.657145,25.555008,26.041737,15.470823,6.897109,10.463381,12.907255,4.9662404,6.999939,5.8634973,3.8983,2.8435395,165.51225,69.0,-5.0,273.0,-625.5,2578.0,0.042851478,1.0625168,0.79254365,1.714465,0.6466931,1.9976285,0.49032196,1.0732001,1.196879,0.6986356,-0.8196591,-2.1129887,-0.6282208,-1.1268923,1.9644371,0.9746005,7.9670134
38,-11.0,2.0,43.4,-30.0,1026.0,2.8672962,4.714773,11.60098,6.0725384,26.772484,31.238058,33.76553,19.060057,6.7270575,7.9729533,11.373829,4.5862536,2.2935212,2.808263,2.1487548,1.1831039,175.18544,55.0,17.0,44.0,-1493.5,2229.0,-0.30195028,1.019948,1.4674709,2.697799,0.5584241,2.3624263,0.13616565,1.3495052,1.2993598,0.56066465,-0.265083,-2.1129887,-0.23486347,-1.6207182,2.2018707,1.1076535,10.225684
39,-19.0,7.0,48.4,-76.0,1268.0,3.2817667,5.3925147,14.084966,7.926319,31.776236,44.802795,50.428288,30.498137,5.9777923,2.9894924,3.2373416,1.2655207,-0.66641605,0.9721238,0.8462926,0.78256816,203.59573,46.0,16.0,388.0,-2430.5,1349.0,-0.12755027,1.3537153,2.1238034,2.3828495,0.82045513,2.6371927,0.31588864,1.1650007,1.2482094,0.97325766,-0.265083,-1.7871027,-0.46336022,-0.22812961,2.037393,1.1076535,13.294194
40,-8.0,14.0,104.4,-118.0,1362.0,4.0380707,6.661818,16.10929,10.067027,28.653612,46.77105,50.95841,32.07343,4.2563295,2.0264573,1.6184045,1.5879712,-1.4058058,1.111505,0.43644366,0.8389688,205.803,-92.0,13.0,516.0,-922.5,1219.0,-0.12755027,1.2303094,1.1323595,2.3828495,0.82045513,2.820987,0.49032196,1.2936805,1.093639,0.62970644,0.05502413,-2.1129887,2.57755,3.901815,6.5961595,8.577624,31.361942
41,-64.0,45.0,407.4,-726.0,2550.0,4.243495,6.4993496,19.574764,8.894834,9.717212,7.485832,5.6101804,4.4456086,2.5693822,1.2799463,1.5285937,1.0438025,-2.1266322,0.38680553,-0.0015260516,0.28775293,71.43939,-74.0,-13.0,104.0,230.5,879.0,-0.30195028,1.3128002,1.1323595,2.697799,0.7340273,2.7290256,0.31588864,1.010809,1.1453588,1.2462051,-0.15736245,-1.4723756,7.4843955,5.338636,23.775978,20.70824,67.69983
42,-136.0,56.0,116.4,-826.0,2843.0,1.0047917,1.9692086,11.181367,4.7143884,5.6813254,3.585519,2.0638638,1.859103,1.7532755,0.616364,0.59876835,0.6379173,-2.1266322,0.8300213,-0.15423518,0.55977166,34.77482,-73.0,0.0,-42.0,17.5,1474.0,1.5402787,1.3128002,2.4451344,2.489197,1.562117,2.5454843,0.49032196,0.93617064,2.4969559,8.166866,3.0835648,1.9453934,33.870842,18.01643,39.13475,31.553347,151.58965
43,37.0,36.0,417.4,847.0,394.0,-0.057094596,1.392743,1.2762367,1.3353382,4.092844,2.32476,1.0709035,0.7525398,0.43356588,0.4980761,-0.090906516,0.45531428,-1.696427,-0.24581313,1.1051883,0.8389688,13.486239,-17.0,2.0,-5.0,130.5,1076.0,2.8026059,1.8299646,3.0744002,4.443352,2.5476055,3.8420837,0.8240151,1.1894958,3.3504887,11.2464905,4.9877977,4.112421,35.41502,19.609892,38.90339,32.407665,170.58669
44,-26.0,-20.0,315.4,698.0,527.0,-0.12105367,1.4123539,0.9910614,1.2236229,3.944631,2.2070196,0.8224875,0.90133876,0.5248113,0.4980761,0.009782744,0.57769346,-2.2684703,-0.41181028,1.1051883,1.2999499,12.716682,1.0,0.0,-11.0,34.5,1022.0,4.6216373,2.5858157,10.64178,5.299041,4.6938777,5.851352,3.6720717,2.214192,5.752408,13.8227825,7.680288,5.548028,35.41502,21.102497,33.95804,27.483536,190.34236
45,-58.0,-31.0,159.4,328.0,1501.0,-0.18463928,1.4403816,0.70154405,1.1173024,3.6544864,2.32476,0.9061793,0.8019734,0.5714746,0.4980761,-0.39757362,0.51683444,-2.4095109,-0.41181028,1.7075212,1.1831039,12.020104,0.0,0.0,-14.0,33.5,1021.0,4.662667,2.6977007,12.164201,5.939199,4.83981,6.145893,4.477801,2.5338085,5.752408,12.871791,7.609057,6.3044367,35.58693,21.73033,28.818317,24.589777,186.72412
46,-85.0,-12.0,191.4,-96.0,2009.0,-0.12105367,1.457644,0.9910614,1.2788298,3.4425154,2.5585935,0.65236235,1.1016273,0.43356588,0.55712366,-0.29457092,0.7565612,-2.5497446,-0.41181028,0.43644366,0.8389688,11.1281185,-2.0,0.0,-9.0,31.5,1021.0,5.261771,4.698763,19.588455,12.049146,6.1321545,11.2735,8.414066,8.728135,7.400526,14.360621,13.954455,12.305661,35.75893,22.615566,18.949303,20.259993,221.75105
47,-115.0,-39.0,216.4,-409.0,2922.0,-0.12105367,1.4403816,1.2762367,1.5122175,3.583285,2.5585935,0.8224875,0.9512385,0.81478083,0.55712366,-0.090906516,0.57769346,-2.5497446,-0.24581313,0.8462926,0.78256816,12.715383,-1.0,0.0,-8.0,25.5,1026.0,5.593382,8.069046,22.316065,19.235086,8.267498,17.70504,12.381322,16.949566,10.937358,17.279406,22.365147,20.999296,34.21364,20.353716,18.949303,16.515171,272.13004
48,-4.0,-78.0,132.4,-210.0,992.0,-0.18463928,1.4403816,0.70154405,0.9224133,3.2355096,2.4419482,0.65236235,0.6542564,0.43356588,0.9756937,0.4052367,0.9873286,16.023664,7.2838454,27.603151,24.649616,88.225876,1.0,0.0,-9.0,20.5,1031.0,5.7102885,9.569035,23.32799,22.443956,8.924891,19.919676,14.037676,19.821,11.919296,17.071907,26.118046,27.72127,32.500458,18.503885,18.716156,15.934687,292.2402
49,29.0,0.0,-12.6,-19.0,1195.0,0.13686086,1.457644,1.2762367,0.96878976,6.6287165,4.0298014,0.9889792,1.2527686,3.5275164,6.972685,3.155655,1.6934193,40.87016,22.64008,35.593166,28.4952,159.68767,-91.0,-81.0,-340.0,-818.5,2376.0,5.775376,11.256607,30.19459,37.749554,6.2116866,13.20487,13.916221,8.173625,6.917366,5.2838597,7.75164,10.371831,12.81485,8.869901,6.1056323,5.5050793,190.10268
50,-1.0,0.0,19.4,16.0,1021.0,0.4661301,1.3812605,2.8998287,1.5734816,9.619078,9.075017,3.3309069,1.3032593,4.5575056,10.90709,6.0354795,1.6407993,40.674374,21.813416,27.436802,21.550488,164.26492,-10.0,-87.0,-532.0,-740.5,2158.0,5.261771,5.020258,22.702732,13.568056,3.8341832,6.741158,6.160392,2.8316383,3.8177493,2.6559687,2.75517,5.201768,3.8793447,5.7994723,2.6930692,1.9288151,94.85155
51,-4.0,0.0,21.4,13.0,1018.0,1.1411294,1.3815645,3.4092658,1.6358266,10.611159,9.956913,3.9435077,1.1519411,5.019244,12.104393,6.1869698,1.7458507,36.6027,19.167053,19.641136,15.208268,148.9069,-93.0,-90.0,-247.0,756.5,2817.0,1.6706603,1.5153195,9.378395,2.2751029,1.3215566,3.0976803,2.3513296,1.010809,1.8528578,1.1099342,-0.05066585,0.56552875,0.2530186,2.849169,1.7960656,1.3765858,32.37335
52,-4.0,0.0,23.4,13.0,1014.0,1.6217637,1.3786651,4.14538,2.3817844,11.014359,11.224221,4.3018384,1.2527686,5.81482,12.104393,6.641602,1.7981118,32.204727,15.773119,14.907439,12.490665,139.05565,5.0,-13.0,-902.0,2076.5,184.0,0.37190607,1.1468977,3.382443,2.8001044,0.6466931,2.2710683,1.4353764,1.1650007,1.55275,0.62970644,-0.8196591,-1.0204903,-0.68195605,0.9198679,1.7236276,0.79839325,16.321728
53,-3.0,1.0,25.4,8.0,1013.0,1.4839959,1.486036,3.6583142,2.9760187,13.184621,13.27594,5.9769464,1.5054903,6.142047,13.369713,7.7870827,1.9540591,26.708466,14.231881,11.650602,10.248678,135.6399,-24.0,65.0,-529.0,666.5,266.0,-1.2361121,0.93402463,1.1323595,4.360721,0.6466931,1.9976285,0.6596404,1.0517898,1.4011596,0.62970644,-1.1658283,-1.7871027,-0.6282208,0.17979957,1.7411377,1.1076535,11.02505
54,-1.0,1.0,25.4,4.0,1016.0,2.0363882,1.5057857,4.14538,2.3100815,13.820078,14.859865,8.26378,2.2604196,6.390835,13.470039,8.48692,2.263766,22.75006,12.5166855,10.630324,8.861718,134.57213,58.0,68.0,-198.0,439.5,834.0,-1.0407807,0.89065856,1.7979337,2.489197,0.19542743,1.9066789,0.49032196,1.0309931,1.0417095,0.42223722,-1.2835648,-2.1129887,-0.83955836,-1.8794217,1.8349423,1.3765858,6.3203716
55,0.0,1.0,24.4,-2.0,1019.0,2.2441175,1.8534789,4.618141,4.313142,16.985676,16.474554,12.263229,5.080868,6.224655,13.5708065,10.515996,2.9390907,17.881174,10.483329,8.494752,7.0707703,141.01378,92.0,20.0,-8.0,259.5,1708.0,-1.0407807,0.89065856,1.1323595,3.0993407,0.19542743,1.7250491,0.13616565,1.4999847,0.9371814,0.35284844,-0.70655483,-2.4503603,-0.73508847,-1.3699411,1.9881066,1.2416102,6.8960066
56,-3.0,1.0,26.4,-13.0,1019.0,2.5904427,3.9328077,10.141304,6.70052,21.54039,20.377228,20.061066,10.575299,7.0684614,11.636182,12.907255,4.1622157,9.10999,6.6118836,5.0585628,3.5672011,156.0408,99.0,38.0,2.0,-39.5,2217.0,-0.48041055,0.89065856,1.4674709,2.489197,0.5584241,2.1798186,0.49032196,1.1411246,1.196879,0.42223722,-0.70655483,-2.2802184,-0.8909022,-1.1268923,1.8349423,1.0188584,8.204955
57,-8.0,1.0,35.4,-19.0,1027.0,3.0055804,4.4239197,10.59807,7.1650004,24.458778,24.712393,25.33915,14.6863365,7.3279457,9.601936,13.188609,4.463054,1.8117352,3.7814715,3.0361047,2.208414,159.80853,94.0,78.0,76.0,-688.5,3077.0,-0.48041055,0.89065856,1.7979337,2.0553083,0.9060048,1.7250491,0.31588864,1.1178664,1.2482094,0.6986356,-0.48366562,-2.2802184,-0.6282208,-1.1268923,1.9644371,1.1076535,8.828237
58,-13.0,1.0,39.4,-23.0,1061.0,3.2127728,4.8627195,13.1482725,6.1515403,27.483513,29.74839,32.427814,19.396275,7.3279457,6.8974404,11.286661,2.9919412,-0.06228245,2.808263,1.3534707,1.3587639,170.3935,47.0,40.0,313.0,-1989.5,3066.0,-0.30195028,1.0625168,2.1238034,2.489197,0.82045513,1.9976285,0.6596404,1.1411246,1.196879,0.42223722,-0.48366562,-1.7871027,-0.68195605,-1.1268923,1.855131,0.79839325,10.18544
59,-22.0,5.0,29.4,-41.0,1321.0,4.1750574,6.337879,14.420803,6.933485,31.4501,37.458565,43.209713,26.584208,6.897109,4.3242598,6.8693404,1.8502215,-0.66641605,1.6429563,1.2306117,1.2413958,193.95929,24.0,-11.0,42.0,-3552.5,1254.0,-0.66299367,1.1468977,1.4674709,2.697799,0.5584241,2.3624263,0.49032196,1.1411246,1.093639,0.42223722,-0.48366562,-1.3190942,-0.46336022,-0.89137685,2.1441708,1.0188584,10.722879
60,-18.0,6.0,37.4,-77.0,1213.0,5.0625668,7.072111,15.803104,9.262569,32.6062,46.569786,50.95841,31.592768,6.059759,2.8592281,3.155655,1.155452,-1.4058058,0.9721238,0.43644366,0.67060435,212.83098,-72.0,-42.0,1808.0,-4849.5,1606.0,0.042851478,1.0625168,0.44796735,3.196609,0.6466931,2.0886736,0.31588864,1.2403457,1.093639,0.62970644,-0.48366562,-2.1129887,1.067036,3.4299312,6.5961595,6.207769,25.469133
61,-20.0,9.0,90.4,-125.0,1333.0,5.5397105,7.655626,17.10873,10.505719,31.288256,50.13676,52.313007,31.912415,4.331118,1.7751694,1.255872,1.155452,-1.9840063,0.38680553,0.29371065,0.67060435,214.34496,-37.0,64.0,-628.0,1007.5,1506.0,-0.12755027,1.1887217,1.4674709,2.3828495,0.37896746,2.2710683,-0.049025536,1.0732001,0.8845624,1.3141924,-0.70655483,-1.4723756,4.180024,4.9214664,19.420797,19.063246,56.191063
62,-19.0,23.0,137.4,-183.0,1520.0,5.6761727,7.9934416,19.27523,13.242327,25.123756,42.20146,43.42997,26.175646,4.4062443,1.2799463,0.69453126,1.5349156,-1.8406014,-0.08301409,0.14775467,0.5047848,189.76257,-69.0,22.0,507.0,-38.5,2064.0,0.042851478,1.019948,2.1238034,2.8001044,0.9060048,2.2710683,0.13616565,0.99123603,1.5023552,3.053096,0.56897056,-0.5918653,23.90382,12.179956,42.02394,35.127277,128.05873
63,-8.0,42.0,207.4,-266.0,1968.0,5.8811097,9.285836,23.196003,16.438314,17.888512,23.767334,19.44147,14.589936,4.4817076,1.3412951,1.7076869,1.7981118,-2.4095109,0.23323463,-0.15423518,0.45008734,137.93687,-106.0,-1.0,-118.0,16.5,1786.0,1.6706603,1.3537153,2.4451344,3.845294,1.8741286,2.453897,0.49032196,1.1411246,2.3483992,9.081617,3.5615637,3.2100222,33.870842,19.363073,43.034546,32.756462,162.50082
64,-36.0,49.0,446.4,-710.0,2883.0,5.949506,7.908703,22.854692,9.993989,11.6255245,12.589795,7.2028112,5.790802,3.7424543,0.91535604,1.9724811,1.4280424,-1.4058058,0.5374208,-0.15423518,0.23423499,91.185776,-14.0,0.0,4.0,12.5,1093.0,3.5074344,1.8299646,6.233816,5.224908,3.2668598,4.029818,2.2310252,1.4379195,4.689898,12.206591,6.2688284,5.4328284,35.93103,21.102497,40.79447,33.28743,187.47533
65,-148.0,55.0,618.4,-1288.0,2886.0,2.1056142,2.4254048,14.857598,5.0355997,6.8950915,4.898848,2.5514,2.8044963,2.3101974,0.4980761,1.0711957,0.7565612,-2.1266322,0.076648206,-0.0015260516,0.39568135,44.554256,-1.0,0.0,-10.0,34.5,1025.0,4.6216373,2.135924,12.164201,6.988259,4.4047523,4.788007,4.248825,2.1284273,6.065173,13.8227825,7.11322,6.726765,37.83284,22.23524,36.666393,32.062943,204.0054
66,-9.0,121.0,1016.4,2041.0,480.0,-0.12105367,1.4403816,1.8338296,0.96878976,4.784575,2.7902942,1.0709035,0.85157853,0.71550095,0.4980761,0.4052367,0.9873286,-2.9655118,0.076648206,0.43644366,0.5047848,14.277807,0.0,0.0,-11.0,35.5,1026.0,4.662667,2.6231093,13.52105,7.734161,4.7667184,5.4617248,5.054621,3.2065887,6.7824903,13.55904,8.473272,7.6966825,35.58693,22.23524,30.374172,27.05047,198.78896
67,36.0,51.0,265.4,809.0,421.0,-0.12105367,1.457644,0.70154405,0.83466864,4.7057757,2.905368,1.0709035,1.0513968,0.71550095,0.4980761,0.20894347,0.9873286,-2.5497446,-0.08301409,0.8462926,0.55977166,13.789401,2.0,0.0,-13.0,34.5,1024.0,5.1460013,5.16248,19.052696,12.45282,5.510968,10.830959,7.902731,8.082802,7.5417814,12.536538,13.954455,11.402083,27.177662,16.69132,16.140785,15.934687,195.52075
68,0.0,-68.0,341.4,654.0,669.0,-0.057094596,1.4252973,0.9910614,0.7934098,4.627451,2.7902942,0.73788726,0.7525398,0.5248113,0.4980761,-0.090906516,0.69753146,-2.6891625,-0.08301409,0.5760534,0.89564586,12.389883,4.0,-1.0,-14.0,30.5,1025.0,5.226225,5.9704313,21.073019,13.748484,5.7409024,12.285691,10.010401,12.057723,7.9742303,12.04354,17.059355,15.923282,23.73169,15.277962,14.127078,14.346975,206.59697
69,-28.0,-65.0,384.4,396.0,890.0,-0.18463928,1.457644,1.5571373,0.7934098,4.318986,2.5585935,0.8224875,1.0012627,0.47883815,0.6757941,-0.090906516,0.7565612,-2.8277547,-0.08301409,0.7126377,0.89564586,12.842683,3.0,-1.0,-17.0,21.5,1026.0,5.518305,6.989371,24.131165,18.376392,6.291664,14.142702,13.6746645,15.47649,8.571346,12.787469,20.647362,22.80462,21.842745,15.979817,14.335219,14.621327,236.19066
70,-68.0,12.0,203.4,95.0,1883.0,0.007221496,1.4252973,1.2762367,0.83466864,4.01848,2.5585935,0.9061793,0.7525398,0.71550095,0.55712366,-0.19235316,0.7565612,-2.5497446,-0.24581313,0.5760534,0.61504555,12.011591,3.0,-2.0,-21.0,9.5,1028.0,5.675454,9.875987,26.514,23.902666,7.0326204,18.08876,19.181215,21.49072,10.252687,12.956457,24.477118,29.98082,21.842745,18.748598,15.070438,16.03067,281.12094
71,-108.0,3.0,75.4,-262.0,2592.0,-0.18463928,1.457644,0.9910614,1.0167646,3.871303,2.7902942,0.8224875,0.9512385,0.61881757,0.43922445,-0.19235316,0.69753146,-2.6891625,-0.24581313,0.5760534,0.5047848,11.425238,-4.0,-3.0,-28.0,-37.5,1143.0,7.2644706,22.427296,53.845055,57.28838,9.911258,34.150074,47.745506,44.223896,11.828073,10.2516365,28.65082,41.711117,36.966114,35.95449,25.499924,32.58155,500.29968
72,-35.0,-44.0,-7.6,-3090.0,1645.0,-0.12105367,1.457644,0.9910614,0.8776882,4.01848,2.5585935,1.232192,0.85157853,0.5714746,0.55712366,0.009782744,0.9873286,-2.6891625,-0.41181028,1.1051883,0.89564586,12.891757,-5.0,-5.0,-15.0,-72.5,1196.0,7.767716,26.328707,67.39461,67.33943,10.7400675,40.52023,60.016445,48.965473,11.556757,10.326648,31.366232,46.300938,40.645912,40.981285,28.818317,36.28532,575.3541
73,112.0,-34.0,-331.6,-516.0,368.0,-0.057094596,1.457644,1.2762367,0.75396794,3.871303,2.7902942,0.73788726,0.85157853,0.47883815,1.1577411,0.30744186,1.2106729,5.963339,5.195574,21.738726,18.12352,65.857666,-6.0,-3.0,-1.0,-116.5,1208.0,8.872575,28.962017,72.603,77.63328,10.425174,42.97948,65.05184,48.030823,10.085359,9.224986,30.154999,44.56244,39.758842,42.491276,26.871832,36.28532,593.9932
74,64.0,-6.0,121.4,-45.0,1559.0,-0.18463928,1.4403816,1.2762367,0.7934098,6.5406566,2.905368,0.8224875,1.1519411,4.0340137,6.377031,2.4893587,1.4816127,41.85221,22.779287,37.29748,29.846916,160.90375,-1.0,-4.0,-84.0,-183.5,1390.0,7.2644706,26.328707,72.603,85.75456,8.359752,35.646976,56.157402,40.520916,7.9742303,7.2770452,22.365147,37.106686,31.815271,34.737225,19.066515,28.221083,521.199
75,13.0,-1.0,5.4,6.0,1096.0,0.13686086,1.4015145,1.2762367,1.0167646,9.035607,6.8791184,1.0709035,1.0012627,3.7424543,8.209967,3.8800826,1.5879712,40.283398,24.050514,36.649014,28.660748,168.88242,-43.0,-30.0,-184.0,-265.5,1658.0,8.355406,18.778885,57.23156,84.89914,7.6370096,24.233843,35.071712,26.876865,7.400526,6.6054573,14.050779,21.688215,20.817776,19.363073,12.590863,14.805581,380.40665
76,1.0,0.0,21.4,15.0,1020.0,0.33360857,1.3860034,2.8998287,1.962352,10.812324,10.444841,4.479645,2.4593809,3.6704483,10.817629,6.565774,2.2122386,37.566116,23.481443,25.812664,19.71862,164.62292,-68.0,-71.0,-349.0,-553.5,2312.0,7.16375,15.289695,40.848026,65.71435,7.0326204,16.075829,17.983871,8.264907,7.3304367,5.7440863,9.593509,11.697294,14.687489,11.667048,7.450293,7.5662003,254.1094
77,0.0,0.0,21.4,13.0,1018.0,0.5327565,1.3815645,3.9036653,2.3817844,11.523149,11.126828,6.6079865,4.4456086,3.7424543,10.817629,7.2501297,2.6772976,33.347652,20.867773,18.831581,13.957456,153.39532,0.0,-116.0,-669.0,-635.5,2696.0,5.7351747,8.478602,28.570496,20.12853,5.284335,9.42317,8.240647,3.0964653,5.5685806,4.1047273,4.842427,6.068994,4.8046575,5.763249,3.0457566,3.3729117,126.528725
78,0.0,0.0,20.4,12.0,1021.0,0.93683517,1.486036,5.0770745,3.206446,13.079354,12.101372,8.487585,5.4315586,4.0340137,10.463381,7.7870827,3.2593055,26.89739,16.34999,14.433276,11.263763,144.29446,53.0,54.0,-703.0,528.5,276.0,-0.48041055,0.89065856,2.1238034,3.0008502,0.7340273,1.6343597,1.2891355,1.2403457,1.2993598,0.49150878,-1.0492775,-1.1684794,-0.73508847,-0.22812961,1.7960656,1.1968503,12.03558
79,-1.0,1.0,19.4,6.0,1015.0,1.5528437,1.6850225,6.5811105,4.233059,14.24737,13.374241,10.344029,7.1120534,3.7424543,10.551409,8.961143,3.3679087,20.872149,13.7091055,11.650602,10.082511,142.067,55.0,76.0,-173.0,728.5,532.0,-0.84976256,0.8470152,2.1238034,2.697799,0.28772232,1.6343597,0.8240151,1.2667022,1.093639,0.56066465,-1.2835648,-1.9486303,-0.68195605,-0.6632031,1.7773298,1.2864833,8.972417
80,-1.0,1.0,20.4,0.0,1017.0,1.8288808,2.0520737,6.9834685,4.8750267,16.096298,15.159964,12.554687,8.483337,3.315862,10.288374,10.015186,3.8709702,16.579752,11.067106,9.204392,8.781868,141.15726,77.0,73.0,-200.0,532.5,809.0,-0.48041055,0.7588746,2.1238034,2.3828495,0.5584241,1.6343597,0.49032196,1.1411246,1.4518281,0.21371318,-1.4025058,-1.4723756,-0.83955836,-0.6632031,1.855131,1.3314738,9.083851
81,-2.0,1.0,22.4,-7.0,1018.0,2.0363882,2.5283742,6.9834685,5.2761517,16.650637,16.781542,15.251623,10.653532,3.7424543,9.771554,10.600438,4.341515,11.623044,8.973809,7.3315487,6.099468,138.64555,93.0,61.0,-83.0,347.5,1102.0,-1.0407807,0.7588746,1.4674709,2.3828495,0.28772232,1.6343597,0.8240151,1.0309931,1.196879,0.35284844,-1.1658283,-1.3190942,-0.78762144,-0.020862015,1.8349423,1.5583291,8.995096
82,-3.0,1.0,20.4,-12.0,1018.0,2.9364524,3.4678288,9.985148,6.3877087,19.387552,18.975023,17.285194,13.92562,4.331118,9.266547,11.725732,4.2813535,6.999939,7.530834,5.5043764,4.5234113,146.51384,90.0,57.0,-20.0,305.5,1599.0,-0.84976256,0.8030891,1.7979337,2.8001044,0.4691918,1.7250491,0.8240151,1.3212813,1.2993598,0.28334093,-1.1658283,-1.7871027,-0.83955836,-1.3699411,1.89712,1.5583291,8.766621
83,-7.0,0.0,29.4,-15.0,1023.0,3.2127728,4.4239197,12.138672,4.233059,21.053242,22.156569,21.326591,20.424175,4.331118,8.772738,12.35451,5.705919,2.4552135,5.469735,3.305946,2.8435395,154.2077,52.0,87.0,-169.0,-2451.5,3369.0,-0.66299367,0.8470152,1.4674709,1.5977693,0.4691918,1.9976285,0.98361367,1.0732001,0.9371814,0.6986356,-1.0492775,-1.3190942,-0.78762144,-0.6632031,1.8349423,1.1521995,8.576658
84,-10.0,2.0,46.4,-26.0,1058.0,3.8322961,5.4696097,12.90338,5.51611,27.055101,34.08553,37.333054,29.738071,5.0973477,5.014995,9.361911,3.5884075,-1.1122148,2.3680027,1.3534707,1.5367476,183.14182,34.0,36.0,-273.0,-3618.5,1435.0,-0.48041055,0.8470152,2.7619822,2.697799,0.99070436,1.9066789,0.8240151,1.2403457,1.0417095,0.6986356,-0.48366562,-1.4723756,-0.46336022,-1.1268923,1.9189618,1.4218235,12.322967
85,-7.0,3.0,36.4,-47.0,1222.0,4.3802657,5.62478,13.624676,7.1650004,30.333796,44.611225,49.645367,36.94431,4.7868934,3.5162926,5.8839235,1.5879712,-1.696427,1.3823326,1.1051883,1.125076,210.02069,-62.0,-14.0,2185.0,-5625.5,2700.0,0.37190607,1.0625168,2.4451344,2.489197,0.82045513,2.2710683,0.8240151,1.010809,0.98956037,0.8361624,-0.48366562,-1.7871027,1.361662,3.5981357,8.526145,7.495839,31.831837
86,-7.0,26.0,127.4,-182.0,1502.0,5.1988654,5.4696097,16.910805,11.840801,23.036243,45.774754,51.49518,34.071205,3.8148162,1.0968884,0.69453126,1.3741843,-1.8406014,-0.08301409,-0.0015260516,0.45008734,199.30284,-44.0,55.0,-457.0,1304.5,1415.0,0.8370251,1.019948,1.7979337,2.8001044,0.99070436,2.1798186,0.6596404,1.0732001,1.196879,1.5851934,-0.37384483,-1.0204903,3.7808368,5.374187,23.225737,21.980204,67.10708
87,30.0,55.0,312.4,-261.0,2270.0,4.0380707,5.62478,19.374851,15.763582,15.986025,24.474371,22.10278,17.962185,4.5575056,1.1577411,0.9779624,2.0575051,-1.8406014,1.5138919,-0.0015260516,0.5047848,134.25392,-100.0,2.0,607.0,-97.5,2349.0,0.6857004,1.1048313,2.4451344,2.0553083,1.1576645,2.3624263,0.49032196,1.0517898,1.6531804,3.5142214,0.76809317,0.07383252,26.488533,14.133935,42.526207,33.28743,133.79861
88,-92.0,80.0,402.4,-1078.0,3422.0,0.399743,1.4678346,10.746568,2.1687322,6.8059382,5.218697,3.0133963,2.508924,2.05804,0.43922445,0.4052367,1.0438025,-0.36571118,-0.08301409,-0.15423518,0.23423499,35.907406,-121.0,-1.0,-165.0,7.5,1687.0,1.7977515,1.1887217,4.571924,3.0993407,2.102491,2.453897,1.4353764,1.1650007,3.09636,10.705381,3.7947383,4.04758,33.356853,20.852352,42.02394,33.28743,168.97914
89,152.0,100.0,-146.6,1185.0,1319.0,-0.057094596,1.4403816,1.2762367,0.7934098,5.4314775,3.1340094,1.3115895,1.0513968,1.0738378,0.4980761,0.69453126,0.8729667,-2.5497446,-0.24581313,0.5760534,0.45008734,15.751402,-12.0,1.0,6.0,20.5,1066.0,4.6216373,1.9455398,9.378395,5.4453707,4.3329597,4.312744,3.4932878,1.8102221,6.1287036,13.212555,6.7610736,5.8364596,35.58693,22.23524,40.79447,33.466522,199.36212
90,-29.0,70.0,1170.4,1909.0,549.0,-0.057094596,1.4403816,1.2762367,1.1697644,5.104419,3.0199368,1.0709035,1.2023255,0.81478083,0.616364,0.69453126,0.8729667,-3.1024241,-0.08301409,0.14775467,0.5047848,14.6926155,1.0,0.0,-11.0,34.5,1025.0,5.0518126,2.7723396,14.4422655,6.925017,5.0607185,6.442479,5.2631516,3.3190894,7.7563705,14.912846,9.289446,7.6966825,35.071445,21.73033,28.484055,25.928682,200.14673
91,6.0,-15.0,285.4,881.0,385.0,-0.12105367,1.457644,0.9910614,0.83466864,4.784575,2.4419482,0.9889792,1.4043406,0.6668297,0.4980761,0.4052367,0.93039113,-2.6891625,-0.08301409,0.29371065,0.55977166,13.364003,1.0,1.0,-13.0,34.5,1022.0,5.07679,3.0346642,15.289849,7.4256134,5.4350705,7.65018,6.020869,3.6106575,8.195383,15.194569,10.373704,8.557091,31.815271,20.10522,21.769049,21.744457,191.29843
92,-25.0,-39.0,555.4,672.0,411.0,-0.12105367,1.457644,0.9910614,0.9224133,4.627451,2.6747057,0.9889792,1.2023255,0.71550095,0.4980761,0.20894347,0.7565612,-2.8277547,-0.24581313,0.7126377,0.726446,13.288124,2.0,0.0,-17.0,33.5,1022.0,5.187723,3.8491995,17.357304,9.80929,5.9743967,9.104793,6.806917,5.2822165,8.269836,15.3845215,12.386393,9.8447075,29.070286,17.652676,19.066515,17.206766,192.25354
93,-30.0,-64.0,340.4,746.0,711.0,0.007221496,1.4252973,0.70154405,0.83466864,4.3953676,2.32476,1.0709035,1.2023255,0.61881757,0.43922445,-0.090906516,0.7565612,-2.5497446,-0.24581313,1.3534707,0.78256816,13.026266,5.0,-1.0,-22.0,25.5,1022.0,5.4992375,5.8122797,20.914518,12.128812,7.202708,12.058773,10.21239,7.992439,10.937358,15.964918,18.316046,14.846912,23.90382,16.215984,15.709611,16.417652,214.13347
94,-80.0,1.0,287.4,-21.0,2118.0,-0.057094596,1.4403816,1.5571373,0.7934098,4.3953676,2.5585935,1.0709035,0.9512385,0.71550095,0.4980761,-0.090906516,0.7565612,-2.6891625,-0.24581313,0.5760534,0.67060435,12.900853,4.0,-1.0,-23.0,21.5,1028.0,5.6644297,8.002251,24.799335,15.081495,7.374855,15.09955,14.159571,12.274161,12.663348,16.968893,23.615246,19.510231,24.592741,18.626162,15.6024685,16.126957,250.16167
95,-133.0,-6.0,367.4,-466.0,3163.0,-0.057094596,1.4771222,1.8338296,0.7164003,4.318986,2.6747057,0.8224875,0.9512385,0.71550095,0.616364,-0.090906516,0.69753146,-2.8277547,-0.41181028,0.43644366,0.45008734,12.323132,4.0,-1.0,-27.0,11.5,1028.0,5.9795403,11.427104,28.570496,17.209415,8.545915,18.734951,19.584654,15.356527,14.229007,17.071907,28.000952,25.955214,25.10971,20.10522,16.795883,18.017323,290.69385
96,-91.0,-54.0,-139.6,-1887.0,3813.0,-0.12105367,1.4123539,1.5571373,0.68076545,4.318986,3.3607025,0.9061793,1.0513968,0.81478083,0.55712366,-0.19235316,0.6379173,-2.8277547,-0.24581313,0.43644366,0.39568135,12.742493,-2.0,-4.0,-35.0,-6.5,1078.0,7.590746,20.435055,44.833317,31.71845,11.713587,31.48696,38.73708,28.23889,17.119122,14.819779,36.202747,38.342674,34.89977,31.513103,24.055502,28.371021,440.07782
97,-64.0,-29.0,-233.6,-3867.0,1951.0,0.07187854,1.4403816,1.8338296,0.7164003,3.871303,3.1340094,1.3115895,1.0513968,0.61881757,0.4980761,0.20894347,0.69753146,-2.6891625,-0.24581313,0.29371065,0.45008734,13.2629795,8.0,-3.0,-29.0,-29.5,1195.0,8.426041,26.328707,57.770412,39.849644,12.960042,40.304306,55.78773,38.80549,16.559145,13.64658,37.805614,44.775124,41.903664,41.619537,31.460478,37.486134,545.4886
98,-66.0,41.0,-853.6,-5007.0,633.0,0.20215318,1.4403816,2.10638,0.7164003,3.7984998,2.905368,1.151969,1.2023255,0.61881757,0.7952122,0.10972824,0.6379173,-0.214333,0.076648206,6.8596334,5.0154376,27.422539,7.0,-5.0,-46.0,-70.5,1197.0,9.975068,32.774307,74.31117,52.657055,13.664889,52.030483,76.02199,49.28199,16.33841,12.956457,41.62956,51.83007,49.45259,50.133022,37.54467,44.93596,665.53766
99,125.0,-83.0,266.4,1248.0,1589.0,0.26774058,1.4123539,0.9910614,0.75396794,3.944631,2.6747057,0.9889792,1.1016273,0.43356588,1.1577411,0.30744186,1.0438025,4.771812,4.5320296,16.751984,14.431792,55.56524,9.0,-4.0,-22.0,-108.5,1220.0,11.696444,37.381752,85.068726,61.970016,14.265108,57.599472,90.08647,51.569977,15.473603,12.206591,42.074116,53.96542,52.04674,52.96626,38.21776,45.94519,722.5337
100,71.0,-31.0,-806.6,29.0,2297.0,0.007221496,1.4403816,1.5571373,1.3353382,4.4722424,2.7902942,0.9061793,1.0513968,0.5248113,2.0896497,0.8841156,1.5879712,26.89739,12.42136,38.40419,32.182987,128.55266,16.0,-8.0,-118.0,-171.5,1408.0,10.161165,36.26787,83.49204,67.66929,12.272635,53.807682,84.75153,47.41988,11.919296,9.953936,34.089252,48.839924,45.829422,47.486576,29.67205,39.15685,662.7895
101,12.0,0.0,-14.6,14.0,1124.0,-0.057094596,1.4252973,1.2762367,1.0662858,8.272778,7.686548,1.9190677,1.3537867,3.6704483,9.018281,4.58466,2.0575051,39.698353,22.501278,37.736217,29.846916,172.05658,-11.0,-34.0,-240.0,-237.5,1568.0,8.872575,27.04265,71.59703,71.06098,9.510045,36.030342,58.43699,31.913195,10.763879,7.75348,20.392088,33.590176,29.585669,29.437397,17.01664,23.067453,486.0706
102,2.0,1.0,11.4,15.0,1029.0,0.07187854,1.4252973,2.10638,1.828939,9.229061,7.98636,3.762215,1.9597989,3.6704483,10.375703,5.4282846,2.1606967,40.47879,23.058928,38.629528,30.020357,182.19267,-33.0,-57.0,-250.0,-461.5,2052.0,7.767716,16.550028,45.467583,61.366177,7.6370096,22.098513,26.251768,13.380885,10.168832,6.7390385,11.948883,16.9139,20.137512,16.09777,10.317045,11.729727,304.57242
103,0.0,0.0,10.4,22.0,1017.0,-0.057094596,1.3860034,4.14538,2.1687322,9.326181,7.98636,4.123252,2.6570702,3.4565961,10.639791,5.656341,2.5734904,38.72679,21.950169,31.841698,24.364647,170.9454,10.0,-63.0,-512.0,-961.5,2625.0,5.7481737,10.59158,34.559685,24.658897,5.818326,12.74297,14.037676,5.4307528,8.269836,4.628572,6.4095154,8.557091,6.5016637,7.6684217,3.0935786,5.6304717,164.34724
104,0.0,0.0,9.4,22.0,1016.0,0.26774058,1.3776256,3.6583142,2.0991518,10.311086,9.859192,6.1633873,4.2527714,3.4565961,10.375703,6.641602,2.9919412,34.49335,20.204956,23.199549,17.043715,156.39668,79.0,-97.0,-418.0,-1494.5,2910.0,4.342384,3.4155927,20.512589,11.059143,2.8378036,4.6925697,6.372091,2.0044324,4.521681,1.7874959,1.6227605,3.9159257,0.5130561,4.9623837,1.8349423,2.456191,76.85104
105,-1.0,0.0,7.4,22.0,1020.0,0.5327565,1.3862906,3.6583142,3.3618097,11.217249,10.737213,7.6160426,5.180305,3.0389135,10.288374,7.7870827,3.044984,28.22093,17.179712,17.389545,12.850496,143.49002,28.0,-118.0,-799.0,2139.5,771.0,0.20931657,1.1048313,6.756792,3.0993407,1.1576645,2.3624263,2.5826027,1.2146105,1.9025828,0.76745373,-0.70655483,0.32403058,-0.29293117,2.263515,1.7411377,1.1968503,25.68367
106,-4.0,1.0,8.4,3.0,1019.0,1.2779667,1.7823108,5.9553175,4.313142,14.03336,14.064725,11.786946,7.4691157,3.7424543,10.90709,9.932656,3.5328472,17.508821,10.813211,10.335063,7.605919,135.06093,41.0,43.0,-477.0,492.5,475.0,-0.84976256,0.89065856,3.382443,1.5977693,0.4691918,1.5437478,1.2891355,1.010809,1.2482094,0.28334093,-1.5226698,-0.5918653,-0.78762144,0.9198679,1.6896365,1.2864833,11.859371
107,-4.0,1.0,15.4,-1.0,1020.0,1.4839959,2.4254048,7.754489,4.9553266,16.317436,15.763688,14.496365,10.3430605,4.1077757,10.288374,10.264362,3.7004547,12.531496,8.561689,7.9846225,6.173144,137.15167,46.0,99.0,-366.0,603.5,733.0,-1.4358213,0.8470152,2.7619822,1.2380543,0.19542743,1.7250491,0.8240151,1.010809,1.093639,0.49150878,-1.2835648,-1.1684794,-0.8909022,0.56200707,1.6730952,1.1968503,8.840685
108,-5.0,1.0,15.4,-5.0,1016.0,2.3826547,2.9742117,9.004173,5.51611,18.460142,18.65652,17.168905,12.830359,4.633637,10.028449,11.637264,4.341515,7.523083,6.79507,5.801057,5.0154376,142.7686,72.0,83.0,-329.0,312.5,1045.0,-0.66299367,0.8030891,2.4451344,1.4794873,0.28772232,1.7250491,0.98361367,1.0732001,0.98956037,0.62970644,-1.4025058,-0.8750856,-0.73508847,-0.020862015,1.7590294,1.3765858,9.855641
109,-7.0,1.0,21.4,-11.0,1024.0,3.0055804,4.0706396,10.141304,5.2761517,21.296144,23.070503,23.024551,18.178957,5.175776,9.349921,13.000664,4.9662404,2.6174414,5.195574,4.52957,3.4337575,156.33278,91.0,58.0,-226.0,78.5,2119.0,-0.84976256,0.7588746,1.7979337,1.4794873,0.37896746,1.6343597,0.8240151,0.99123603,0.98956037,0.6986356,-1.2835648,-1.0204903,-0.8909022,-0.020862015,1.6730952,1.2416102,8.402195
110,-11.0,2.0,30.4,-13.0,1028.0,2.9364524,4.495979,10.447722,4.473516,25.123756,30.826738,33.090885,23.56453,5.6531296,7.6606536,11.903669,4.1622157,-0.5164084,2.7011983,2.2540789,2.2709062,171.04903,92.0,123.0,-338.0,-498.5,2939.0,-0.84976256,0.7588746,2.7619822,1.5977693,0.4691918,1.6343597,0.6596404,0.99123603,1.1453588,0.56066465,-1.5226698,-1.3190942,-0.78762144,-0.4421825,1.6568147,1.063208,8.377769
111,-19.0,3.0,44.4,-52.0,1194.0,3.9009278,4.714773,11.872811,5.115834,31.612759,50.13676,62.40031,38.286297,6.3075843,3.5827963,5.3521256,1.3741843,-2.1266322,1.7695807,0.5760534,0.9525972,225.82877,65.0,90.0,-332.0,-2103.5,3680.0,-0.48041055,0.7588746,2.7619822,2.901113,0.7340273,1.9066789,1.2891355,1.1411246,0.8845624,0.49150878,-1.1658283,-0.73222435,-0.6282208,-0.020862015,1.7236276,0.8863412,12.451429
112,-26.0,3.0,39.4,-99.0,1228.0,4.585188,5.62478,11.872811,5.7552557,34.155487,61.39408,74.35586,43.346268,5.019244,2.0896497,2.232937,1.0438025,-1.9840063,0.8300213,0.14775467,0.726446,251.19557,19.0,-2.0,-278.0,-3584.5,1791.0,0.53068066,0.7588746,3.6861637,3.0008502,1.1576645,1.8158207,0.8240151,1.010809,1.35034,0.90476316,-0.8196591,-1.4723756,-0.3503668,-0.89137685,1.7236276,1.3765858,14.606416
113,-25.0,10.0,95.4,-145.0,1330.0,4.516909,5.2393417,13.026411,7.3950586,33.630886,67.80776,76.86506,42.2286,4.4817076,1.8377671,0.8841156,1.155452,-2.2684703,0.076648206,0.14775467,0.55977166,257.5848,127.0,-144.0,513.0,-4370.5,705.0,-0.12755027,1.019948,4.571924,2.3828495,0.99070436,2.1798186,1.2891355,1.0517898,1.196879,1.0416474,-0.8196591,-1.1684794,-0.407175,-0.4421825,2.0893774,1.6041081,16.453136
114,21.0,61.0,282.4,-276.0,2145.0,3.9695191,5.16328,15.388456,12.530149,18.690474,29.61543,26.898993,17.320274,5.9777923,0.7952122,1.5285937,1.9540591,-1.1122148,0.5374208,-0.0015260516,0.45008734,139.70601,-238.0,27.0,575.0,-171.5,682.0,-0.30195028,0.9771192,2.4451344,0.98994243,0.6466931,1.9066789,0.98361367,0.99123603,0.831693,1.652715,-1.1658283,-0.8750856,2.0696278,4.40078,11.293165,10.90594,37.751472
115,-71.0,42.0,408.4,-1153.0,3292.0,3.2127728,4.0014634,16.712067,6.6225486,12.660152,12.88347,7.9715996,6.0536795,4.864016,0.616364,1.255872,2.263766,-0.8157255,1.3823326,0.14775467,0.39568135,80.227806,-1.0,-1.0,-17.0,29.5,1028.0,5.0518126,2.135924,11.799936,7.672606,5.209476,4.8836412,4.1703954,3.2065887,6.917366,13.55904,6.901806,6.85045,36.103237,21.85633,35.809612,30.076551,202.20477
116,120.0,100.0,-120.6,2870.0,2462.0,-0.18463928,1.457644,1.2762367,0.7164003,4.943577,3.0199368,1.232192,0.85157853,1.4039073,0.7354111,0.9779624,0.81503147,-2.4095109,-0.24581313,-0.15423518,0.23423499,14.669913,2.0,2.0,-16.0,31.5,1022.0,4.9414277,2.6604023,13.359795,8.472557,4.83981,5.851352,4.625933,3.5511715,6.386151,12.956457,8.400348,7.494188,32.500458,19.363073,25.351828,24.072575,184.82751
117,45.0,42.0,515.4,580.0,667.0,-0.12105367,1.4403816,1.8338296,0.7934098,5.2670655,2.6747057,0.8224875,1.0513968,0.71550095,0.55712366,0.009782744,0.7565612,-2.6891625,0.23323463,0.5760534,0.67060435,14.591922,3.0,0.0,-16.0,32.5,1025.0,5.10079,4.13624,18.774235,12.289737,5.209476,10.067184,8.155061,8.44884,6.849754,9.880081,11.948883,10.923567,27.349884,17.050255,16.795883,16.515171,189.49504
118,-10.0,-9.0,377.4,637.0,865.0,-0.057094596,1.4403816,0.70154405,0.7934098,4.943577,2.6747057,1.151969,0.9512385,0.71550095,0.4980761,0.10972824,0.57769346,-2.5497446,-0.08301409,0.8462926,0.726446,13.44071,3.0,-1.0,-21.0,25.5,1024.0,5.310114,5.3075037,20.10044,14.39944,5.663874,12.85801,9.518275,12.822417,7.6129494,10.326648,14.738403,15.439692,24.592741,16.215984,16.140785,15.271047,206.31831
119,-58.0,-8.0,210.4,337.0,1659.0,-0.18463928,1.4403816,0.9910614,0.75396794,4.549605,2.4419482,0.73788726,1.0012627,0.76482123,0.55712366,0.10972824,0.69753146,-2.8277547,0.38680553,0.8462926,0.78256816,13.04859,2.0,-1.0,-25.0,14.5,1027.0,5.4381127,7.2328568,23.806236,21.056904,6.9483385,15.220513,13.795215,16.32818,8.495413,11.641318,19.272337,21.826838,23.90382,17.531796,15.070438,16.03067,243.59898
120,-111.0,10.0,367.4,-73.0,2300.0,-0.12105367,1.457644,1.5571373,0.8776882,4.7057757,2.2070196,0.73788726,0.8019734,0.6668297,0.43922445,-0.5013752,0.6379173,-2.5497446,0.38680553,0.7126377,0.726446,12.742814,4.0,-2.0,-28.0,4.5,1029.0,5.7481737,10.429576,28.681181,27.529583,6.9483385,19.653954,20.397997,25.729187,9.837228,12.1249075,25.06461,31.369284,24.592741,20.10522,16.032593,18.535545,302.78012
121,-163.0,-28.0,105.4,-805.0,3151.0,-0.18463928,1.4252973,1.5571373,0.9224133,4.2431016,2.905368,0.8224875,0.9512385,0.5248113,0.616364,-0.090906516,0.6379173,-2.5497446,0.076648206,0.43644366,0.726446,13.020385,3.0,-3.0,-37.0,-3.5,1035.0,6.190051,15.1872835,35.17348,35.92504,9.021026,24.81987,29.581758,31.719353,11.737242,12.703488,30.325787,37.456116,28.554548,25.195108,18.600208,22.457985,374.64835
122,-50.0,-50.0,-665.6,-2425.0,3503.0,0.007221496,1.4252973,0.9910614,0.96878976,4.2431016,2.7902942,0.8224875,0.90133876,0.6668297,0.4980761,-0.19235316,0.7565612,-2.8277547,-0.08301409,0.97711205,0.55977166,12.504821,13.0,0.0,18.0,-21.5,1333.0,6.6786838,21.293364,48.78434,43.831345,9.609517,32.88528,42.14641,36.71904,12.853353,11.482523,31.89671,40.74494,35.93103,33.897957,25.648867,31.385448,465.78876
123,80.0,-106.0,-4033.6,-6152.0,4067.0,-0.057094596,1.4252973,1.2762367,0.75396794,3.7984998,2.4419482,0.8224875,0.90133876,0.5714746,0.7354111,0.009782744,0.8729667,2.7801976,2.0157285,11.755644,9.344778,39.44866,8.0,-2.0,-50.0,-53.5,1176.0,7.7076883,27.18701,65.5372,55.615833,11.384337,43.444073,62.477592,42.589966,12.853353,11.801297,36.40001,47.20336,44.30222,43.387455,32.58807,39.37147,583.8509
124,7.0,-152.0,361.4,943.0,893.0,0.007221496,1.457644,0.9910614,0.9224133,4.01848,3.0199368,0.65236235,0.7525398,0.5248113,1.0362053,0.10972824,1.3741843,9.64428,6.2421947,33.17847,29.163193,93.09473,6.0,-6.0,-59.0,-92.5,1199.0,8.149943,32.94161,77.12933,66.036194,12.614118,54.417065,77.587616,47.724155,13.238204,11.641318,38.83683,51.31455,49.45259,48.261475,37.992012,41.591335,668.9283
125,3.0,0.0,12.4,17.0,1019.0,0.20215318,1.3812605,3.4092658,2.6747139,10.510909,9.663576,5.130717,3.4359918,4.0340137,10.288374,6.4142046,2.9919412,39.309223,22.918903,30.372837,23.391394,176.12947,6.0,-9.0,-95.0,-214.5,1373.0,8.497753,30.662994,77.85083,79.183846,9.609517,44.15164,68.66535,35.39657,9.919558,8.166866,26.579544,41.12838,38.355183,38.36072,23.775978,30.723484,571.0283
126,-3.0,1.0,12.4,7.0,1024.0,1.4839959,1.9692086,5.9553175,5.115834,14.03336,13.27594,10.781533,9.523027,2.8352714,9.349921,8.096607,3.4226072,17.508821,11.502768,9.949223,7.760392,132.56383,-24.0,-36.0,-235.0,-297.5,1607.0,8.149943,21.417654,60.538273,79.183846,8.452557,27.397427,38.9681,22.356207,9.67371,6.672206,15.86773,25.518976,23.559607,21.85633,13.200255,16.417652,399.23047
127,-5.0,1.0,9.4,-3.0,1018.0,2.1056142,2.3261292,8.659313,5.8347573,15.875945,15.260249,12.167021,13.009018,2.9706388,8.529841,9.361911,3.5884075,12.167503,8.697234,7.411609,5.7337084,133.6989,54.0,-73.0,-413.0,-946.5,2780.0,5.6328363,8.340406,27.81748,17.901213,4.7667184,9.95917,9.81133,3.9797456,5.9390955,3.4484663,4.7694087,6.2452407,2.842612,6.438425,2.42786,4.082193,124.40218
128,-7.0,1.0,15.4,-10.0,1014.0,2.2441175,3.0334713,10.59807,5.0355997,17.435343,17.503708,17.285194,16.176334,3.2460546,7.5060487,9.442728,4.221589,6.4799695,6.6730127,5.2818775,4.803466,136.9666,-14.0,-91.0,239.0,-660.5,3758.0,2.8026059,2.324209,16.909828,5.939199,2.0268574,3.7484727,5.1939216,1.6660876,3.0459144,1.3820832,1.060269,2.5721974,0.2530186,3.901815,1.7236276,1.788708,56.338814
129,-8.0,2.0,22.4,-13.0,1019.0,2.6596844,4.0014634,10.893255,3.4399455,19.037848,21.259115,21.198462,22.447378,3.5988016,6.524618,10.431838,4.774262,2.2935212,5.054203,4.375135,3.2351296,145.22466,93.0,12.0,16.0,410.5,1687.0,-1.0407807,0.89065856,3.0744002,1.3595916,0.37896746,1.5437478,1.7155874,1.0732001,1.2993598,0.62970644,-0.70655483,-1.4723756,-0.57387906,0.17979957,1.7236276,1.2864833,11.361542
130,-4.0,1.0,28.4,-25.0,1061.0,3.694909,5.012245,12.90338,5.675643,23.805582,33.06714,38.86257,36.570843,4.1077757,3.9849415,8.096607,3.2053804,-1.259377,2.3680027,1.4738523,1.8994802,183.46895,104.0,33.0,128.0,63.5,2380.0,-1.2361121,0.8030891,2.4451344,2.901113,0.4691918,1.5437478,0.8240151,1.0732001,1.1453588,0.49150878,-0.70655483,-1.1684794,-0.83955836,0.17979957,1.7064704,1.1076535,10.739577
131,-2.0,2.0,33.4,-41.0,1117.0,4.3118973,4.788544,12.00647,6.1515403,26.214174,40.962,50.69252,44.03425,4.0340137,2.924289,4.739201,2.0575051,-1.8406014,2.3680027,0.97711205,1.4771647,205.89807,100.0,86.0,77.0,-874.5,3304.0,-0.84976256,0.8470152,2.7619822,2.901113,0.5584241,1.8158207,0.8240151,1.0517898,1.093639,0.49150878,-0.594563,-1.3190942,-0.78762144,-0.4421825,1.7411377,0.79839325,10.891615
132,1.0,4.0,25.4,-70.0,1146.0,4.585188,4.4239197,13.388617,7.3950586,26.214174,50.800297,64.81994,53.44163,3.9605985,2.3438773,3.155655,1.2106729,-1.696427,1.3823326,0.5760534,1.2999499,237.30156,31.0,39.0,-144.0,-4160.5,1412.0,-0.30195028,1.019948,4.2808514,2.1659312,0.9060048,2.0886736,1.4353764,1.2936805,0.8845624,0.56066465,-0.594563,-1.4723756,-0.29293117,-0.22812961,2.0893774,2.0704439,15.905564
133,3.0,6.0,23.4,-115.0,1238.0,4.4486027,4.352314,14.531121,8.450415,26.772484,57.828598,75.59933,62.86278,3.1766253,1.8377671,1.4382426,0.9873286,-1.8406014,0.6851398,0.5760534,0.9525972,262.6588,-49.0,31.0,1135.0,-5633.5,909.0,-0.12755027,1.019948,2.4451344,1.2380543,0.6466931,2.2710683,0.6596404,0.95391834,0.8845624,0.97325766,-0.48366562,-0.8750856,3.0234916,4.4548006,14.649002,12.663527,44.396797
134,1.0,5.0,26.4,-170.0,1291.0,4.4486027,4.2105055,14.857598,9.482385,24.196129,56.530605,76.44066,62.506145,3.3860435,1.4028053,0.9779624,1.2106729,-2.4095109,-0.08301409,0.14775467,0.55977166,257.86514,-40.0,-10.0,-103.0,112.5,2328.0,2.274328,1.019948,3.0744002,1.9432075,1.9507449,2.3624263,0.6596404,0.972273,2.1999614,6.140325,1.6227605,1.1333346,31.986588,17.411108,41.0374,31.892086,147.68053
135,55.0,58.0,301.4,-307.0,2124.0,3.2127728,4.2105055,18.09168,13.650116,16.317436,27.035755,30.34633,27.839384,4.7868934,1.0968884,1.8847136,2.3668404,-1.9840063,0.9721238,0.14775467,0.61504555,150.59024,-58.0,2.0,-60.0,-16.5,1442.0,4.121628,1.4752145,5.966644,5.0746098,3.3379114,3.4686265,1.2891355,1.4078239,5.3875494,12.956457,5.916357,5.0271688,34.728153,21.982481,40.79447,33.466522,186.40076
136,-31.0,69.0,566.4,-1282.0,3148.0,1.9671865,3.730084,15.177941,9.262569,13.2900715,14.461412,10.2579975,7.229747,4.5575056,0.91535604,1.9724811,1.8502215,-1.5514921,1.2482224,0.14775467,0.5047848,85.02184,-2.0,1.0,-7.0,15.5,1040.0,5.025824,2.135924,10.64178,6.075666,5.284335,4.6925697,4.1703954,2.6306498,7.8286257,15.0063305,7.680288,6.85045,36.966114,22.615566,35.809612,31.052557,204.46669
137,-98.0,78.0,188.4,-1351.0,3216.0,0.26774058,1.3786651,9.173138,2.3817844,7.528895,5.6405735,3.268118,2.6570702,2.1204014,0.616364,0.9779624,1.3741843,-1.8406014,0.5374208,0.14775467,0.34156913,36.571033,0.0,0.0,-8.0,28.5,1025.0,5.261771,2.5112011,13.196231,7.549291,5.587233,5.558806,4.9138355,3.8544097,8.647652,15.867069,9.064099,7.628661,35.071445,22.488628,30.374172,27.194054,204.76855
138,161.0,101.0,63.4,2874.0,1472.0,-0.24783452,1.4403816,1.8338296,0.83466864,4.8638434,2.7902942,1.3115895,0.85157853,1.2916577,0.55712366,1.0711957,1.099836,-2.1266322,-0.24581313,0.5760534,0.55977166,16.461544,0.0,0.0,-9.0,32.5,1022.0,5.261771,3.185903,15.289849,8.845735,5.510968,7.65018,5.538448,5.505814,8.41985,15.7696705,11.269518,9.342022,31.47258,20.10522,23.362219,21.744457,198.2742
139,-43.0,44.0,905.4,1810.0,723.0,-0.24783452,1.4123539,0.9910614,1.5734816,4.8638434,2.32476,1.3115895,1.0012627,0.81478083,0.55712366,1.0711957,1.2655207,-1.9840063,-0.08301409,0.29371065,0.5047848,15.670613,2.0,0.0,-10.0,29.5,1025.0,5.261771,4.0946193,16.677794,10.6992235,5.9743967,9.52983,6.09049,6.2849903,10.168832,15.67272,13.668286,10.105197,27.522078,16.810743,17.686712,17.914776,194.16246
140,-8.0,-20.0,400.4,923.0,442.0,-0.18463928,1.4403816,0.70154405,1.1173024,4.549605,2.5585935,1.151969,1.0513968,0.76482123,0.616364,0.50234115,1.3200173,-2.5497446,0.38680553,0.8462926,0.726446,14.999496,4.0,-1.0,-15.0,26.5,1029.0,5.427076,4.834823,18.96072,12.371006,5.9743967,10.830959,8.501905,7.460044,10.252687,16.063221,16.293688,12.305661,24.075996,14.816176,16.576351,14.898118,199.64282
141,-39.0,-35.0,405.4,794.0,629.0,-0.057094596,1.4403816,0.9910614,1.0167646,4.3953676,2.4419482,0.9061793,0.85157853,0.6668297,0.616364,1.0711957,1.155452,-2.2684703,0.076648206,0.43644366,0.67060435,14.411254,6.0,-1.0,-15.0,24.5,1027.0,5.518305,6.1318145,21.775524,13.041164,6.534341,12.513756,10.111033,8.44884,10.850425,15.28933,19.64036,16.045433,21.158878,14.701566,14.649002,13.895023,210.3048
142,-62.0,-23.0,117.4,392.0,1209.0,-0.24783452,1.4771222,1.5571373,0.7934098,4.01848,2.32476,0.9061793,0.85157853,0.71550095,0.4980761,0.009782744,0.7565612,-2.5497446,0.076648206,0.8462926,1.125076,13.159026,3.0,-2.0,-23.0,13.5,1022.0,5.6431417,8.002251,24.62976,13.748484,7.1174088,15.341781,15.27506,10.385675,11.919296,15.194569,22.638577,21.549868,21.500555,16.810743,14.544194,13.98489,238.28625
143,-82.0,19.0,94.4,273.0,1739.0,-0.12105367,1.4123539,1.5571373,0.83466864,3.871303,2.5585935,0.9061793,1.0012627,0.61881757,0.55712366,0.10972824,0.81503147,-2.4095109,0.23323463,1.2306117,0.78256816,13.958049,2.0,-4.0,-27.0,5.5,1027.0,6.066258,11.171993,28.792664,18.98621,7.814441,18.995796,18.913448,14.9991665,12.758149,15.0063305,28.000952,26.686903,22.700129,18.138039,16.685966,16.417652,282.13412
144,-122.0,35.0,94.4,-289.0,2307.0,-0.18463928,1.4403816,1.5571373,0.83466864,3.7984998,2.6747057,0.8224875,0.9512385,0.6668297,0.43922445,0.009782744,0.93039113,-2.5497446,-0.08301409,0.97711205,0.78256816,13.067629,-1.0,0.0,-34.0,-1.5,1037.0,6.460727,16.442791,34.408672,25.121233,8.829313,25.863573,27.327084,22.356207,14.843569,13.298632,32.254223,30.903402,28.898413,23.38082,19.539799,21.394648,351.32312
145,-149.0,-57.0,233.4,-331.0,3549.0,0.07187854,1.4403816,1.5571373,0.7934098,4.2431016,2.7902942,0.9889792,1.0012627,0.5714746,0.4980761,0.20894347,0.81503147,-2.6891625,0.23323463,0.7126377,0.5047848,13.7414665,12.0,0.0,12.0,-20.5,1220.0,7.0669684,20.923016,44.624027,32.45695,10.425174,32.005695,38.280487,29.1196,14.947491,12.288591,34.65557,36.074932,35.243195,31.208555,24.33805,28.071962,431.73026
146,-93.0,-72.0,-436.6,-2495.0,3305.0,-0.057094596,1.4403816,0.70154405,0.68076545,3.871303,3.0199368,0.9061793,1.4043406,0.5714746,0.55712366,-0.19235316,0.8729667,-2.2684703,0.38680553,0.5760534,0.61504555,13.086003,7.0,-1.0,-40.0,-55.5,1133.0,8.018306,26.89882,56.432312,43.37568,10.952693,41.17541,52.93309,37.171715,14.432164,11.881739,38.010017,42.303314,44.490757,39.14286,32.397198,34.938305,534.5544
147,-80.0,-14.0,-132.6,-4254.0,1118.0,-0.057094596,1.4403816,1.2762367,0.75396794,4.092844,3.247595,0.9889792,1.3032593,0.5714746,0.4980761,0.50234115,0.93039113,-2.5497446,0.23323463,0.8462926,0.5047848,14.58302,5.0,-4.0,-47.0,-92.5,1175.0,9.883669,34.481106,71.26479,54.524227,13.0763235,53.50623,68.202126,45.643158,14.843569,11.801297,39.891495,46.74927,49.66277,46.23031,37.54467,38.31132,635.61633
148,67.0,-64.0,-2942.6,-5465.0,3117.0,0.007221496,1.457644,0.9910614,0.83466864,3.6544864,2.5585935,0.8224875,1.0513968,0.34516808,0.85519475,0.30744186,0.9873286,1.9717745,1.111505,9.665728,6.995016,33.616714,8.0,-6.0,-38.0,-134.5,1209.0,10.546539,37.76045,81.56515,66.359604,13.193086,54.417065,74.48831,47.41988,14.128058,11.2464905,38.42157,46.97559,49.87399,45.73988,36.666393,39.58741,668.3894
149,70.0,-136.0,42.4,842.0,1341.0,-0.057094596,1.457644,0.9910614,1.1697644,3.7984998,2.6747057,0.73788726,1.0012627,0.3890055,1.4644755,0.4052367,1.4816127,11.623044,6.3042808,28.10673,24.937744,86.485855,14.0,-8.0,-109.0,-195.5,1440.0,11.052898,35.185772,81.56515,73.18167,10.846112,49.228153,68.202126,38.80549,10.763879,9.081617,32.79636,42.303314,42.63213,38.945377,27.186625,33.28743,605.0641
150,179.0,31.0,-721.6,151.0,2476.0,0.007221496,1.4771222,0.9910614,0.7164003,4.2431016,2.5585935,0.73788726,0.9512385,1.4039073,6.3035583,1.7964528,1.9540591,40.47879,18.78523,38.180202,31.99688,152.5817,-12.0,-29.0,-194.0,-241.5,1601.0,9.52907,26.47046,70.60491,77.25103,8.267498,33.242573,46.55089,27.04409,9.271546,7.2094426,19.272337,29.98082,27.349884,25.063955,16.795883,19.169964,453.07437
151,39.0,-3.0,-45.6,-123.0,1412.0,-0.18463928,1.4252973,1.2762367,1.2236229,8.272778,6.2645063,1.232192,1.3537867,4.2563295,9.10073,4.662009,2.0058224,39.698353,22.64008,36.435383,28.166964,167.82944,-46.0,-65.0,-296.0,-464.5,2094.0,9.52907,18.206633,49.47713,69.00533,7.725457,20.45543,22.89446,12.711949,9.271546,5.7440863,11.269518,15.439692,16.79127,13.029264,9.362839,10.502948,301.41666
152,0.0,0.0,5.4,10.0,1032.0,0.07187854,1.4123539,2.639315,1.6358266,9.815593,8.284794,3.4555266,1.909477,4.633637,11.087113,5.8839235,2.1091244,39.5037,23.623098,36.222992,26.581238,178.8696,19.0,-74.0,-598.0,-916.5,2820.0,5.8043027,9.798609,32.53294,23.60519,4.6938777,11.72053,12.153152,5.2822165,6.582778,3.6456306,5.916357,7.628661,5.5726337,6.817794,3.4513319,4.4817176,149.68771
153,1.0,0.0,9.4,25.0,1015.0,0.20215318,1.3812605,3.4092658,2.1687322,10.410884,8.976623,4.95273,3.4841747,4.7100997,13.170375,6.565774,3.4226072,38.532967,22.501278,31.841698,21.550488,177.28111,8.0,-93.0,99.0,-1288.5,3420.0,3.6591568,3.493094,19.23425,9.097657,2.2524207,4.6925697,6.4434175,2.3024313,3.2484324,1.8547586,1.5309324,3.8490515,0.5130561,4.7487426,1.9189618,2.456191,71.29513
154,0.0,-1.0,8.4,19.0,1018.0,0.33360857,1.3815645,3.6583142,2.900005,11.523149,9.761415,6.35219,4.7367816,4.4062443,13.269826,7.864258,3.4226072,32.39504,19.942839,22.755749,16.314379,161.01797,34.0,-95.0,-226.0,1387.5,1015.0,0.042851478,1.2716669,7.513571,2.3828495,0.7340273,2.453897,2.107435,1.2146105,1.55275,0.8361624,-0.37384483,0.68311673,-0.68195605,3.249653,1.7236276,1.1076535,25.818071
155,-5.0,1.0,13.4,2.0,1013.0,2.0363882,2.5811963,7.754489,4.313142,16.650637,15.763688,12.949845,8.7519045,4.5575056,11.543716,11.199811,3.8709702,11.080528,7.718183,7.4921002,6.7687917,135.03291,-6.0,18.0,-491.0,689.5,488.0,-0.66299367,1.0625168,5.420679,1.9432075,0.37896746,2.2710683,2.4684792,1.0732001,1.2993598,0.49150878,-0.70655483,-0.18539117,-0.68195605,1.5678179,1.7590294,0.9746005,18.473537
156,-5.0,1.0,16.4,-4.0,1017.0,2.3133843,2.8579438,9.004173,4.7143884,19.037848,18.129663,17.052994,11.131536,5.2545285,10.639791,11.993146,4.2813535,6.826255,6.1798596,5.949854,4.3845024,139.75124,40.0,114.0,-506.0,510.5,770.0,-1.0407807,0.9771192,3.9856157,1.714465,0.9060048,1.9976285,1.2891355,1.0732001,1.1453588,0.56066465,-0.8196591,-1.0204903,-0.78762144,0.7438967,1.7960656,1.3765858,13.897188
157,-7.0,1.0,17.4,-11.0,1023.0,2.3133843,3.8646843,10.447722,4.8750267,21.296144,21.70584,21.583908,15.972962,5.6531296,10.201391,12.44573,4.774262,2.4552135,4.5320296,4.0598445,3.3011322,149.4824,85.0,15.0,-141.0,-125.5,2175.0,-0.12755027,1.0625168,3.0744002,1.2380543,0.7340273,1.9066789,1.4353764,1.2403457,0.98956037,0.56066465,-0.48366562,-1.4723756,-0.8909022,0.37403148,1.7773298,1.3314738,12.749966
158,-11.0,2.0,31.4,-11.0,1035.0,2.9364524,4.352314,12.138672,4.233059,24.590807,27.287224,28.364553,19.509056,6.059759,8.6105175,12.263644,4.2813535,-0.214333,3.3158188,2.6576395,2.3965816,162.7831,103.0,36.0,-237.0,-717.5,3087.0,0.042851478,0.89065856,3.0744002,1.714465,0.5584241,1.9976285,1.2891355,1.0309931,1.0417095,0.62970644,-1.4025058,-1.4723756,-0.78762144,-0.22812961,1.7411377,0.9746005,11.095079
159,-13.0,1.0,32.4,-28.0,1058.0,3.6261537,4.937289,11.872811,4.6340737,28.209965,33.93853,37.333054,25.240211,6.390835,6.0843964,9.850383,3.044984,-1.259377,2.7011983,1.7075212,1.717003,180.02904,63.0,-1.0,363.0,-3582.5,1664.0,0.20931657,1.0625168,2.4451344,2.697799,0.5584241,2.0886736,0.8240151,1.0952252,0.9371814,0.6986356,-0.9338939,-1.7871027,-0.6282208,-0.22812961,1.7411377,1.4218235,12.202537
160,-20.0,5.0,39.4,-84.0,1213.0,4.1750574,5.2393417,12.779144,6.6225486,34.332226,55.023037,67.34598,38.286297,5.572766,2.6004102,3.155655,1.099836,-2.2684703,1.3823326,0.29371065,0.78256816,236.42245,-54.0,8.0,1322.0,-4733.5,1101.0,-0.66299367,1.019948,2.4451344,1.9432075,0.99070436,2.0886736,0.98361367,1.4379195,1.1453588,0.90476316,-0.05066585,-1.4723756,1.9878091,3.5981357,7.537975,6.2732263,30.170435
161,-24.0,7.0,84.4,-128.0,1297.0,4.516909,5.3925147,11.872811,7.6236744,34.332226,67.80776,75.59933,40.30358,4.7100997,1.7751694,1.1638281,1.0438025,-2.6891625,0.076648206,0.14775467,0.5047848,254.18175,-13.0,1.0,13.0,-45.5,1107.0,4.81252,1.6345383,7.513571,4.020992,4.6938777,4.029818,2.5826027,1.3783526,6.0019712,12.536538,6.0575185,5.201768,38.355183,22.615566,42.779613,35.127277,199.3417
162,113.0,74.0,327.4,2902.0,-198.0,-0.12105367,1.4252973,1.5571373,1.2788298,4.943577,2.7902942,1.232192,0.90133876,0.76482123,0.6757941,0.4052367,0.81503147,-2.4095109,0.23323463,-0.0015260516,0.34156913,14.832264,0.0,0.0,-10.0,-0.5,1033.0,5.20736,1.9071398,11.039063,6.007665,5.663874,4.312744,3.844034,2.3474767,7.5417814,14.6348915,6.4095154,6.0106335,37.83284,23.125017,39.837395,33.109394,208.83083
163,18.0,45.0,517.4,841.0,884.0,-0.057094596,1.4403816,0.70154405,1.2788298,4.784575,2.5585935,1.151969,0.90133876,0.6668297,0.43922445,0.10972824,0.7565612,-2.5497446,0.38680553,0.14775467,0.39568135,13.112978,1.0,0.0,-15.0,9.5,1024.0,5.261771,3.110126,15.015019,8.410769,5.510968,6.8411903,5.6757774,4.849456,7.6844788,13.471871,9.365065,7.6966825,29.242119,17.531796,18.484667,17.30688,175.45865
164,-25.0,-9.0,435.4,596.0,681.0,-0.057094596,1.4252973,1.2762367,0.9224133,4.7057757,2.5585935,0.9889792,0.90133876,0.5714746,0.616364,0.20894347,0.9873286,-2.2684703,0.5374208,0.7126377,0.726446,14.813686,2.0,0.0,-18.0,8.5,1022.0,5.2443514,3.7290332,16.794529,9.612005,5.9743967,8.893869,6.955941,6.4469438,9.351223,14.179778,12.210158,10.017685,27.349884,16.215984,17.238665,16.613005,186.82745
165,-19.0,-55.0,414.4,429.0,975.0,-0.12105367,1.4403816,0.9910614,0.75396794,4.318986,2.7902942,0.8224875,0.9512385,0.61881757,0.4980761,0.10972824,0.69753146,-2.6891625,0.5374208,0.5760534,0.726446,13.022276,3.0,0.0,-17.0,3.5,1023.0,5.427076,5.020258,20.01654,11.73567,6.534341,11.60835,8.952489,9.202561,10.506554,15.100237,15.346854,12.618662,25.282063,16.215984,16.795883,15.934687,206.29822
166,-60.0,-40.0,473.4,280.0,1251.0,-0.18463928,1.4252973,0.9910614,0.7934098,4.2431016,2.5585935,0.9061793,0.90133876,0.6668297,0.616364,0.20894347,0.7565612,-2.5497446,0.6851398,0.8462926,0.726446,13.591174,4.0,-1.0,-22.0,-4.5,1024.0,5.6227293,6.3521323,23.249176,12.618101,7.288522,13.321072,13.434972,9.492505,11.919296,15.67272,18.670412,17.93333,24.592741,18.138039,15.709611,17.007538,231.0229
167,-86.0,-6.0,428.4,86.0,1933.0,-0.12105367,1.4403816,1.5571373,0.9224133,4.1677194,2.5585935,0.9061793,0.70329493,0.71550095,0.4980761,-0.090906516,0.69753146,-2.6891625,0.6851398,0.43644366,0.726446,13.113735,5.0,-1.0,-26.0,-10.5,1033.0,5.902806,9.569035,27.302101,17.784168,7.288522,16.9464,19.047213,13.949575,14.740078,15.7696705,24.916758,24.652699,25.454422,20.60276,17.01664,18.535545,279.4784
168,-144.0,-48.0,133.4,-1835.0,3576.0,-0.057094596,1.457644,2.10638,1.1697644,4.318986,2.4419482,0.8224875,0.90133876,0.5714746,0.55712366,0.009782744,0.81503147,-2.6891625,0.38680553,0.43644366,0.55977166,13.808724,7.0,-2.0,-32.0,-18.5,1034.0,6.3632827,13.224509,33.092964,22.02032,8.829313,23.083174,25.50114,20.646023,15.051843,15.480148,30.842623,31.213633,28.382559,24.41204,19.539799,21.744457,339.42786
169,154.0,-120.0,350.4,90.0,987.0,-0.057094596,1.4403816,1.2762367,0.7934098,3.583285,2.6747057,0.8224875,0.90133876,0.47883815,1.6504289,0.78964275,1.4816127,4.9407763,4.1276655,14.199075,12.312361,51.415146,6.0,-5.0,-52.0,-27.5,1032.0,7.0200377,19.83439,44.20864,30.99153,10.012942,32.005695,37.6089,27.550877,17.119122,14.000507,36.40001,36.76008,34.89977,30.906843,24.767706,28.071962,432.15897
170,106.0,-81.0,-964.6,-203.0,1869.0,-0.057094596,1.4771222,0.70154405,0.8776882,4.01848,2.905368,0.65236235,0.7525398,0.47883815,2.0264573,0.8841156,1.3741843,25.387054,10.402385,37.736217,31.082607,120.699875,10.0,0.0,-24.0,-44.5,1249.0,8.570547,25.906488,58.041656,41.586544,12.499792,41.17541,53.629852,37.171715,17.690983,13.734492,39.255844,43.31247,43.740337,42.052402,31.093874,37.896217,547.3586
171,24.0,-1.0,-8.6,10.0,1170.0,-0.057094596,1.4123539,1.5571373,1.2788298,9.521193,7.485832,2.2061024,1.2023255,3.9605985,8.449451,4.5071473,1.7458507,39.698353,22.362886,39.313736,31.082607,175.72731,12.0,-2.0,-50.0,-77.5,1223.0,9.975068,33.447926,75.35548,52.13333,14.753424,54.111286,80.269135,47.41988,16.78173,13.126836,45.0667,51.57142,52.721455,51.243378,41.281803,45.437504,684.69635
172,3.0,0.0,17.4,3.0,1027.0,0.33360857,1.4015145,2.639315,1.7635953,10.01308,8.18546,4.3018384,2.4097579,3.9605985,9.942484,5.4282846,2.1091244,39.698353,22.362886,38.856224,28.166964,181.57309,16.0,-4.0,-55.0,-113.5,1288.0,11.807485,40.11586,86.67777,61.366177,15.124289,62.836964,88.87353,51.569977,16.559145,12.288591,44.126427,54.24086,54.815075,51.525707,41.775066,44.68747,738.3904
173,1.0,0.0,14.4,8.0,1019.0,0.20215318,1.3786651,3.6583142,2.7493255,11.420976,9.075017,5.915283,3.868577,3.315862,11.2686205,6.0354795,2.7815728,36.6027,21.950169,32.408478,23.391394,176.02258,-23.0,-66.0,-273.0,-445.5,2213.0,7.0669684,15.1872835,48.55561,47.846188,7.461712,21.4072,23.60557,11.313129,9.51171,6.206566,11.437057,16.414806,17.451435,14.931129,9.081425,10.824867,278.30264
174,0.0,0.0,13.4,5.0,1018.0,0.399743,1.3928107,3.9036653,3.283969,11.93386,9.369655,7.2028112,5.635671,3.5988016,10.463381,6.4142046,2.8864205,32.014477,19.812435,24.407644,16.728586,159.44814,81.0,-59.0,-620.0,-991.5,2734.0,5.4992375,7.419689,29.952517,16.762085,4.9867973,10.392864,13.554581,4.7792253,7.8286257,4.2357316,5.0601716,8.482112,3.7808368,7.4828377,2.9072654,5.6304717,138.75508
175,0.0,0.0,14.4,7.0,1020.0,0.8690342,1.451211,4.8493066,3.283969,12.45168,10.054584,8.116812,6.0536795,2.7015076,9.266547,6.945359,3.313478,25.953148,15.321432,18.169392,12.312361,141.11351,-97.0,-176.0,-747.0,703.5,-221.0,0.20931657,1.4752145,8.472964,2.0553083,1.2399805,3.0976803,3.4010973,1.0732001,2.1999614,0.90476316,0.2634527,1.1333346,-0.23486347,2.6270168,1.855131,1.3765858,31.15014
176,-1.0,1.0,14.4,1.0,1016.0,0.7339428,1.486036,5.740567,3.4399455,12.555821,10.054584,9.505671,7.348758,2.5039456,8.6105175,7.4030175,3.0982306,21.998251,13.002699,13.7365265,10.332075,131.55058,12.0,-80.0,-50.0,1748.5,1132.0,-0.48041055,1.3537153,7.513571,1.9432075,0.5584241,2.6371927,2.5826027,1.0732001,1.35034,0.6986356,0.05502413,0.20003936,-0.57387906,2.133737,1.7773298,1.3765858,24.199314
177,-1.0,1.0,11.4,-6.0,1013.0,1.2779667,1.7823108,6.5811105,3.9934123,14.03336,12.003811,10.430552,9.450921,2.7681868,7.4291234,8.252246,3.5884075,17.322796,10.897222,10.930607,8.306629,129.04866,-4.0,31.0,-620.0,544.5,389.0,-0.30195028,1.1048313,6.4971824,1.3595916,0.28772232,1.9066789,2.107435,1.0309931,1.196879,0.21371318,-1.0492775,-0.31848976,-0.78762144,1.2547106,1.6568147,1.4671906,17.626406
178,-1.0,1.0,16.4,-13.0,1016.0,2.0363882,2.3261292,9.004173,5.115834,16.539368,14.660408,12.751336,11.624243,2.8352714,7.352446,9.200953,4.1622157,12.167503,9.625476,8.068382,6.69373,134.16385,45.0,38.0,-249.0,232.5,1250.0,-1.2361121,0.8470152,2.7619822,1.2380543,0.0075720334,1.8158207,1.4353764,0.972273,0.8845624,0.14396366,-1.0492775,-1.4723756,-0.83955836,0.56200707,1.7064704,1.2416102,9.019383
179,-3.0,1.0,13.4,-15.0,1020.0,2.521188,3.0934598,10.295482,4.313142,17.548302,17.503708,16.70756,15.470823,3.3860435,7.8944855,10.855509,4.774262,7.523083,7.345344,6.3246093,5.0154376,140.57245,65.0,6.0,-151.0,182.5,1831.0,-1.6399729,0.8470152,3.0744002,1.4794873,0.102053724,1.8158207,1.4353764,1.0309931,0.9371814,0.28334093,-1.2835648,-1.1684794,-0.9416559,0.56200707,1.6730952,0.93042964,9.137527
180,-6.0,0.0,18.4,-23.0,1024.0,3.0055804,3.730084,10.59807,3.7550151,19.97583,21.930696,22.759384,19.622192,4.0340137,7.199824,11.993146,5.430279,2.4552135,5.7990894,4.6061273,3.367342,150.26189,85.0,53.0,-234.0,-487.5,2546.0,-1.0407807,0.7588746,2.1238034,1.2380543,0.5584241,1.6343597,1.1386002,0.95391834,1.093639,0.42223722,-1.5226698,-1.3190942,-0.83955836,0.37403148,1.7064704,0.84233063,8.122642
181,-10.0,0.0,20.4,-25.0,1027.0,3.2817667,4.2105055,11.322872,4.473516,22.783113,28.436304,28.813824,24.072025,4.1818814,6.3035583,12.173131,5.9177866,-0.36571118,3.8700812,2.6576395,2.459762,164.59206,93.0,85.0,-254.0,-1562.5,3390.0,-1.0407807,0.8470152,4.2808514,1.4794873,0.37896746,1.5437478,0.98361367,1.010809,1.093639,0.49150878,-0.8196591,-1.6283648,-0.8909022,1.2547106,1.7064704,0.7107188,11.401834
182,0.0,2.0,35.4,-31.0,1074.0,3.6261537,4.8627195,14.197754,5.5959253,25.66474,35.58467,40.45879,32.397892,4.633637,4.392595,8.961143,3.8709702,-1.696427,2.1353598,1.7075212,1.8384106,188.23184,45.0,51.0,0.0,-3067.5,2497.0,-0.12755027,0.8030891,3.382443,1.4794873,1.1576645,1.6343597,0.8240151,1.0309931,1.093639,0.90476316,-0.48366562,-1.3190942,-0.9416559,0.37403148,1.7236276,0.84233063,12.378477
183,-3.0,2.0,21.4,-50.0,1273.0,3.694909,5.2393417,12.269457,6.309129,27.772194,46.369534,56.04002,43.346268,4.331118,2.7943099,4.9699283,2.0058224,-2.1266322,1.7695807,0.8462926,1.2413958,216.87268,47.0,-38.0,-57.0,-4185.5,714.0,-0.12755027,0.93402463,4.2808514,1.714465,0.9060048,1.9066789,0.8240151,1.0309931,1.2482094,0.97325766,-0.8196591,-1.6283648,-0.68195605,-0.020862015,1.7590294,1.1968503,13.495987
184,-5.0,2.0,14.4,-90.0,1259.0,4.1065826,4.8627195,12.398861,6.7783346,28.209965,56.78711,73.13434,54.033657,3.8875318,1.8377671,2.3188443,0.9873286,-2.2684703,0.6851398,0.29371065,0.78256816,248.836,-158.0,22.0,2018.0,-4337.5,545.0,-0.48041055,0.9771192,2.4451344,0.98994243,0.7340273,1.8158207,0.6596404,0.99123603,0.7785629,0.90476316,-0.9338939,-1.3190942,2.3199205,4.104185,9.551752,8.726083,32.26479
185,-1.0,9.0,60.4,-145.0,1386.0,4.4486027,4.641415,14.420803,8.747122,24.856302,57.045147,73.13434,51.431305,3.2460546,1.2799463,0.8841156,1.155452,-2.5497446,0.38680553,-0.0015260516,0.55977166,243.68591,-12.0,73.0,-403.0,393.5,1008.0,-0.30195028,0.89065856,2.7619822,0.98994243,0.7340273,1.7250491,0.8240151,0.91902834,1.196879,1.9219385,-0.594563,-1.0204903,11.759254,7.4828377,31.093874,26.62427,87.00675
186,6.0,29.0,132.4,-176.0,1612.0,4.243495,4.937289,16.811548,11.840801,19.857615,42.562805,53.427605,40.30358,3.6704483,1.2187611,0.8841156,1.5349156,-1.8406014,0.8300213,-0.0015260516,0.67060435,200.95146,-43.0,-21.0,27.0,72.5,2072.0,1.4065504,0.89065856,3.9856157,1.5977693,1.562117,1.7250491,0.98361367,0.93617064,2.0514295,7.75348,1.5309324,2.4002638,30.786894,18.38177,39.13475,31.218521,146.34558
187,-65.0,86.0,-68.6,-75.0,3457.0,0.20215318,1.4111049,9.004173,1.5734816,6.0202923,4.0298014,2.2061024,1.8086818,1.8132685,0.616364,0.8841156,1.099836,-1.8406014,0.5374208,-0.15423518,0.34156913,29.553526,-30.0,2.0,-43.0,-83.5,1179.0,3.3463116,1.5552375,6.756792,3.196609,3.124446,3.5617473,1.5774769,1.2936805,4.8605027,12.1249075,5.774881,5.37518,35.243195,20.977356,42.02394,34.37813,185.1704
188,103.0,97.0,323.4,1064.0,-6.0,-0.18463928,1.457644,2.10638,1.3931023,5.0237703,3.0199368,1.0709035,0.9512385,1.2363557,0.616364,1.3473394,0.93039113,-2.5497446,0.076648206,0.43644366,0.45008734,17.38222,-1.0,1.0,-6.0,21.5,1040.0,4.662667,1.9838235,10.64178,5.939199,4.6212745,4.4074173,3.4932878,1.9248786,5.876545,13.64658,6.831424,6.127537,34.728153,22.74267,42.526207,35.50865,205.66208
189,-16.0,14.0,619.4,1557.0,994.0,-0.18463928,1.4403816,1.5571373,1.5734816,4.01848,3.0199368,1.151969,0.85157853,0.6668297,0.616364,0.78964275,0.9873286,-2.5497446,0.38680553,-0.0015260516,0.55977166,14.883798,3.0,0.0,-18.0,40.5,1021.0,4.1796045,1.7522465,7.2649374,3.5739465,3.7632735,3.5617473,2.4684792,1.5645502,5.033589,11.403561,5.7040024,4.73174,29.929062,18.01643,27.345425,23.817707,154.1103
190,-11.0,-19.0,697.4,546.0,418.0,-0.18463928,1.4403816,1.5571373,0.9224133,4.092844,2.5585935,0.9061793,0.90133876,0.5714746,0.55712366,0.30744186,0.93039113,-2.4095109,0.5374208,0.43644366,0.726446,13.8514805,2.0,0.0,-17.0,40.5,1018.0,4.0617194,2.2490952,10.232808,3.0008502,3.9051454,4.6925697,3.5835798,1.4999847,5.327815,11.482523,7.11322,5.3174686,27.866371,17.531796,22.158524,20.935131,150.9586
191,-34.0,-36.0,339.4,584.0,568.0,-0.12105367,1.4403816,0.9910614,0.8776882,3.7984998,2.5585935,0.9061793,0.90133876,0.5714746,0.616364,0.10972824,0.69753146,-2.6891625,0.38680553,0.8462926,0.9525972,12.84432,-1.0,0.0,-22.0,40.5,1016.0,4.3930717,3.2620425,12.691306,4.107349,3.9761772,7.041974,4.698855,2.214192,6.7824903,12.206591,9.979842,7.36174,29.242119,18.138039,19.779205,18.431156,164.30615
192,-37.0,-63.0,348.4,556.0,915.0,-0.12105367,1.4403816,0.9910614,1.0167646,3.871303,2.4419482,0.9889792,0.9512385,0.47883815,0.6757941,0.50234115,0.7565612,-2.6891625,0.9721238,1.2306117,1.0673144,14.575045,-2.0,0.0,-17.0,34.5,1023.0,5.294621,4.262426,17.679354,8.410769,5.663874,10.067184,7.576384,4.709542,9.034774,14.912846,14.638722,10.371831,30.443867,18.38177,17.799593,17.812586,197.06015
193,-57.0,-44.0,243.4,328.0,1217.0,-0.12105367,1.4403816,1.2762367,1.1173024,3.6544864,2.2070196,0.73788726,1.0012627,0.5248113,0.4980761,0.009782744,0.8729667,-2.5497446,0.5374208,1.5918413,1.0673144,13.8659935,-2.0,-1.0,-18.0,31.5,1025.0,5.427076,5.864642,20.512589,12.701578,5.7409024,12.74297,8.769973,8.264907,11.467103,16.360884,17.17087,14.153655,27.005413,17.050255,17.574184,16.711155,217.51816
194,-129.0,11.0,299.4,-331.0,2666.0,-0.12105367,1.4252973,1.2762367,2.2390532,3.6544864,2.4419482,0.8224875,1.1016273,0.5714746,0.616364,0.009782744,0.93039113,-2.5497446,0.5374208,0.97711205,0.726446,14.65933,2.0,-1.0,-17.0,22.5,1032.0,5.603024,8.271938,22.547842,13.748484,6.9483385,15.463353,12.611747,10.793693,14.128058,16.063221,22.501553,20.453417,24.592741,17.411108,16.249252,16.515171,243.90294
195,-136.0,-59.0,-33.6,-1048.0,3841.0,-0.057094596,1.4403816,1.2762367,2.6006246,3.726226,2.6747057,0.8224875,1.1519411,0.9684,0.6757941,-0.19235316,0.7565612,-2.4095109,0.5374208,0.8462926,0.61504555,15.43316,6.0,-2.0,-24.0,14.5,1045.0,5.835094,11.341644,27.81748,18.6182,7.814441,19.653954,18.646637,15.596877,15.6871195,16.461035,29.145693,27.128748,27.005413,19.363073,18.25478,18.64031,297.01053
196,-50.0,-37.0,-326.6,-3732.0,2506.0,0.07187854,1.4252973,0.70154405,2.824432,3.7984998,2.4419482,0.9061793,1.1519411,0.76482123,0.55712366,-0.090906516,0.93039113,-2.4095109,0.38680553,0.97711205,0.61504555,15.052603,3.0,-6.0,-43.0,0.5,1030.0,6.427415,16.874142,36.448353,26.38564,9.312768,27.553753,28.435307,24.154675,16.33841,14.451641,34.089252,34.899876,31.815271,26.522873,22.158524,24.984406,380.85226
197,-95.0,55.0,-504.6,-4893.0,634.0,0.07187854,1.457644,1.2762367,2.3100815,3.5126266,2.7902942,0.73788726,1.0513968,0.5248113,0.616364,-0.19235316,0.8729667,-1.1122148,0.076648206,4.375135,3.0383778,21.407782,16.0,-1.0,36.0,-33.5,1426.0,7.3163238,23.464775,52.84269,40.063957,11.493566,37.005688,48.35766,34.124676,16.228731,13.126836,37.197857,42.502888,39.93559,38.749203,29.15668,33.466522,505.03363
198,184.0,-104.0,-21.6,323.0,-283.0,0.20215318,1.4403816,0.70154405,0.83466864,3.033586,2.0887172,0.65236235,0.8019734,0.302065,1.0968884,0.10972824,1.3741843,5.11017,4.2109213,13.50822,11.958865,47.42643,18.0,-2.0,-18.0,-51.5,1275.0,9.192054,31.785503,71.26479,52.657055,11.935676,51.74149,72.00213,43.39777,15.051843,12.04354,41.189068,48.839924,49.243435,47.486576,37.54467,41.82087,637.1964
199,58.0,-127.0,-510.6,-523.0,1702.0,-0.18463928,1.4403816,1.8338296,1.3931023,3.583285,2.905368,0.8224875,0.90133876,0.302065,1.4644755,0.30744186,1.2655207,24.255915,10.564881,38.856224,33.516964,123.22864,18.0,-7.0,-88.0,-96.5,1450.0,10.847077,37.006805,83.102806,61.366177,12.499792,55.66238,76.54029,46.52119,13.141383,10.2516365,37.602127,47.663338,46.80777,44.77924,32.397198,37.896217,654.0855
200,185.0,16.0,115.4,17.0,1951.0,-0.057094596,1.4403816,0.9910614,0.83466864,5.104419,2.6747057,0.73788726,0.70329493,2.6352377,6.6730766,2.4043145,1.5349156,41.65537,21.001612,39.54458,31.627937,159.50636,-6.0,-30.0,-234.0,-116.5,1729.0,9.358366,29.41862,77.85083,64.75813,8.452557,37.005688,56.157402,34.333294,8.801379,6.8059573,21.559608,34.077465,29.929062,29.008116,17.350168,21.980204,486.84683
201,22.0,0.0,-24.6,19.0,1203.0,0.007221496,1.4252973,2.3748534,1.3353382,9.815593,7.3852043,1.7715781,1.2023255,3.8148162,8.691483,4.0381336,1.5879712,41.65537,24.050514,40.010487,30.370296,179.53648,-44.0,-62.0,-292.0,-228.5,2276.0,9.975068,20.073423,51.8586,54.524227,6.698479,20.186829,23.748877,15.356527,8.195383,5.349502,11.521393,15.439692,15.974041,16.334452,8.617955,11.314862,295.16928
202,2.0,0.0,7.4,-4.0,1024.0,0.07187854,1.4252973,2.8998287,1.962352,10.211517,8.680824,4.2424145,1.909477,3.9605985,10.463381,5.123119,1.9540591,41.066143,23.907633,40.010487,29.674486,187.56349,28.0,-80.0,-104.0,-1169.5,3482.0,3.8699508,3.5711389,19.847095,8.783191,1.4024202,5.558806,5.9514956,2.4394145,2.7952397,1.2462051,1.9828944,3.9159257,1.1395668,4.6559925,2.01242,2.213679,71.38544
203,0.0,0.0,8.4,5.0,1020.0,0.07187854,1.4015145,3.4092658,2.0303466,11.319009,8.7795315,5.549734,3.4359918,3.8148162,11.822281,5.8839235,2.263766,38.92077,22.918903,32.791393,23.943005,178.35614,-127.0,-162.0,-62.0,1819.5,1458.0,-0.12755027,1.5552375,9.156934,1.3595916,0.99070436,3.0976803,3.306908,1.0517898,2.3483992,0.97325766,-0.05066585,1.346923,-0.17615902,3.0563838,1.7960656,1.6041081,31.289612
204,0.0,0.0,6.4,4.0,1019.0,0.13686086,1.3812605,4.383518,2.0991518,11.830882,9.663576,6.415688,3.964547,3.1075768,10.72853,6.4142046,2.7293699,33.920124,20.07368,24.407644,17.255997,158.5126,13.0,-86.0,-380.0,1901.5,929.0,0.042851478,1.2303094,7.2649374,1.714465,0.6466931,2.1798186,2.908056,1.1411246,1.5023552,0.62970644,-0.37384483,0.91217226,-0.46336022,2.133737,1.7773298,1.2416102,24.487965
205,-1.0,0.0,8.4,7.0,1017.0,0.7339428,1.3862906,4.14538,2.6006246,12.45168,9.467701,7.3389864,4.834533,2.6352377,9.686583,6.1869698,2.3152947,28.978123,16.940077,18.96537,13.398643,142.06544,-27.0,5.0,-544.0,691.5,415.0,-0.84976256,1.2303094,6.4971824,2.3828495,0.28772232,2.3624263,1.9804242,1.1650007,1.196879,0.21371318,-0.265083,-0.73222435,-0.51892686,1.2547106,1.855131,1.1076535,19.168005
206,-1.0,1.0,10.4,4.0,1016.0,0.80139965,1.4111049,4.8493066,2.6006246,12.243971,11.029435,8.26378,4.6394076,2.4389324,9.266547,6.7174683,2.5217285,24.821308,14.338223,16.500105,11.783632,134.22697,21.0,57.0,-423.0,606.5,517.0,-1.4358213,1.1468977,4.571924,1.4794873,0.4691918,1.9066789,1.9804242,1.010809,1.093639,0.14396366,-1.1658283,-0.45396748,-0.57387906,1.2547106,1.6568147,1.2864833,14.371529
207,0.0,1.0,8.4,-1.0,1011.0,0.80139965,1.5057857,4.8493066,2.9760187,13.2900715,11.419022,9.835169,5.482311,2.3743482,8.936135,6.489977,2.7815728,22.562033,13.402682,14.433276,10.752258,131.89136,66.0,54.0,-365.0,230.5,1686.0,-1.0407807,0.8030891,3.0744002,1.4794873,0.0075720334,1.9066789,1.1386002,1.0309931,1.1453588,0.07409091,-1.1658283,-1.3190942,-0.9918219,0.37403148,1.7773298,1.063208,9.357315
208,0.0,1.0,6.4,-12.0,1017.0,1.6217637,2.2307055,7.754489,4.313142,16.539368,16.168991,12.457064,9.026733,3.2460546,10.201391,9.932656,3.9284937,15.283964,10.897222,9.665728,7.683068,140.95085,79.0,80.0,-378.0,-239.5,2390.0,-0.84976256,0.8470152,2.1238034,1.3595916,0.28772232,1.8158207,1.1386002,0.972273,0.98956037,0.28334093,-1.1658283,-1.7871027,-0.83955836,-0.22812961,1.7064704,0.9746005,7.6284165
209,-1.0,1.0,10.4,-13.0,1022.0,2.6596844,2.8009686,9.004173,5.5959253,18.575184,18.762486,16.139599,11.541107,4.4817076,10.201391,11.199811,4.837807,11.261144,8.834581,6.8596334,5.8065104,148.56172,40.0,5.0,167.0,-2858.5,2796.0,-0.84976256,1.0625168,4.2808514,3.2926795,0.4691918,1.9066789,0.6596404,1.2146105,0.98956037,0.49150878,-0.48366562,-1.6283648,-0.68195605,1.0900853,1.7773298,0.79839325,14.389297
210,-21.0,2.0,56.4,-40.0,1116.0,3.7636232,5.0875783,12.398861,6.1515403,29.712746,40.962,47.13803,27.697647,5.175776,4.46109,7.1738205,2.418418,-1.4058058,2.592167,1.1051883,1.6566685,196.08934,36.0,-94.0,3.0,-4239.5,1058.0,-0.48041055,1.3128002,4.2808514,1.829602,0.6466931,1.9976285,1.2891355,1.0732001,1.1453588,0.8361624,-0.594563,-1.1684794,-0.23486347,1.0900853,1.9644371,2.1657505,17.153389
211,-22.0,4.0,29.4,-64.0,1336.0,4.0380707,5.16328,11.872811,5.9934044,31.940542,55.270622,66.613174,36.757034,4.4062443,2.4718573,2.6582117,0.9873286,-1.9840063,1.6429563,0.7126377,0.8389688,229.38316,-1.0,98.0,22.0,589.5,1634.0,-1.0407807,0.7588746,3.382443,1.9432075,0.37896746,1.7250491,0.6596404,0.95391834,0.8845624,1.7874959,-0.15736245,-0.5918653,18.11668,10.315585,34.768158,28.521788,102.406364
212,-5.0,39.0,174.4,-119.0,1793.0,4.7216706,5.62478,16.007637,12.144759,21.053242,40.442383,44.324043,25.37236,4.1818814,1.0362053,0.9779624,1.7458507,-2.1266322,0.6851398,0.14775467,0.39568135,176.73471,-115.0,-10.0,-30.0,65.5,1790.0,0.20931657,0.9771192,3.382443,2.0553083,1.1576645,1.8158207,0.8240151,0.95391834,2.1999614,8.797101,2.2458696,2.1318207,30.786894,19.48641,36.666393,29.91711,143.60718
213,8.0,64.0,335.4,-358.0,2922.0,4.858071,6.4993496,21.007153,13.899513,13.184621,17.296509,12.071286,9.379219,4.864016,1.0968884,1.6184045,2.3668404,-0.06228245,1.3823326,0.7126377,0.67060435,110.84515,-1.0,0.0,1.0,33.5,1025.0,4.442045,2.2490952,12.164201,9.48191,4.118517,4.788007,4.3261514,2.5338085,6.1287036,12.536538,7.609057,7.628661,35.93103,21.982481,31.460478,28.97912,196.3598
214,-54.0,122.0,-371.6,1457.0,3529.0,-0.12105367,1.392743,6.5811105,1.0662858,4.318986,3.585519,1.232192,0.90133876,1.3475108,0.43922445,0.78964275,1.2655207,-1.9840063,0.38680553,0.8462926,0.5047848,22.552895,0.0,0.0,2.0,33.5,1024.0,4.662667,2.5112011,14.143766,9.942344,4.261333,5.753618,4.7711034,3.3190894,6.582778,12.787469,9.365065,8.116366,33.52816,20.977356,26.56073,22.94444,190.2275
215,-10.0,58.0,500.4,896.0,607.0,-0.18463928,1.4403816,1.8338296,0.96878976,4.01848,2.7902942,0.9889792,1.0513968,0.81478083,0.4980761,0.4052367,1.099836,-2.9655118,0.6851398,0.7126377,0.8389688,14.996678,1.0,0.0,-3.0,33.5,1021.0,4.7771173,2.9970367,15.289849,10.418749,4.6212745,7.041974,5.33217,4.2372613,6.516895,12.370914,10.453432,8.708927,29.585669,18.503885,20.386276,18.327145,179.56857
216,-21.0,28.0,452.4,694.0,416.0,-0.12105367,1.4403816,0.9910614,1.0167646,4.549605,2.4419482,0.8224875,0.7525398,0.71550095,0.7952122,0.59876835,1.2106729,-2.5497446,0.6851398,0.8462926,1.0098207,15.205397,0.0,-1.0,-6.0,33.5,1022.0,4.998788,3.8089674,17.573236,11.280402,5.1349406,9.210651,6.230606,5.505814,7.6844788,12.370914,12.12266,10.371831,25.454422,14.701566,17.01664,16.03067,179.49658
217,-34.0,-81.0,374.4,424.0,945.0,-0.18463928,1.4403816,1.2762367,0.9224133,4.1677194,2.4419482,0.9889792,0.70329493,0.6668297,0.55712366,0.30744186,0.7565612,-2.4095109,0.5374208,1.1051883,1.0673144,14.344704,4.0,0.0,-1.0,34.5,1024.0,5.0518126,4.4339356,18.19264,11.355079,5.510968,10.28403,7.4965444,5.4307528,8.495413,13.734492,15.2442,12.513684,23.04371,13.909572,14.754026,15.0840225,184.53488
218,-49.0,-57.0,287.4,333.0,1310.0,-0.12105367,1.4252973,0.9910614,0.9224133,3.7984998,2.2070196,0.8224875,0.6542564,0.5248113,0.4980761,0.4052367,0.81503147,-2.6891625,0.8300213,0.7126377,1.125076,12.921711,5.0,-1.0,-9.0,27.5,1025.0,5.325027,6.0238633,21.23047,12.870227,6.2116866,11.945741,9.326651,8.264907,9.75528,14.179778,17.622355,15.559825,20.307316,14.359869,13.816385,13.626968,200.42635
219,-106.0,-23.0,427.4,-572.0,2928.0,-0.057094596,1.4252973,2.10638,1.828939,3.7984998,2.32476,0.73788726,0.85157853,0.61881757,0.6757941,0.009782744,0.93039113,-2.4095109,0.6851398,0.8462926,0.78256816,15.155521,6.0,-1.0,-10.0,17.5,1029.0,5.593382,7.804355,23.806236,14.982117,6.6161704,13.554353,13.315846,10.1842,11.288965,14.451641,22.094185,21.826838,20.647455,15.74472,13.91975,14.075018,229.90523
220,-98.0,-86.0,252.4,-2249.0,3571.0,0.007221496,1.4252973,1.5571373,1.6358266,3.871303,2.6747057,0.5658967,0.85157853,0.61881757,0.616364,0.009782744,0.8729667,-2.1266322,0.9721238,0.7126377,0.9525972,15.217625,6.0,-2.0,-14.0,8.5,1034.0,5.8043027,10.429576,27.609142,19.869703,7.6370096,17.832617,19.047213,16.575415,12.758149,14.912846,29.47921,28.317816,22.87188,18.626162,15.6024685,16.515171,283.88867
221,-120.0,64.0,-196.6,-4400.0,740.0,0.13686086,1.4403816,1.2762367,1.1173024,3.4425154,2.4419482,0.8224875,0.8019734,0.47883815,0.616364,-0.090906516,0.93039113,-0.66641605,0.23323463,5.3560963,3.7014525,22.03876,0.0,-2.0,-31.0,-2.5,1037.0,6.2731576,14.382581,35.80299,26.225082,8.829313,25.11567,28.758718,21.633493,14.843569,13.8227825,32.254223,34.569313,28.7265,24.93307,18.832518,21.27904,356.28204
222,172.0,-155.0,-26.6,962.0,497.0,0.07187854,1.4403816,0.9910614,0.75396794,3.1676314,2.4419482,0.5658967,0.70329493,0.302065,1.0968884,0.30744186,1.3200173,4.100379,4.685999,13.966819,12.850496,48.766167,11.0,0.0,-4.0,-30.5,1216.0,7.0669684,19.83439,46.328266,35.33041,10.425174,31.83205,39.672295,29.841574,15.367507,13.298632,35.229393,39.98967,35.071445,32.287548,24.055502,29.75857,445.38937
223,58.0,-183.0,-868.6,-621.0,1715.0,-0.057094596,1.4252973,1.2762367,0.7934098,3.5126266,3.1340094,0.8224875,0.70329493,0.5248113,2.0264573,0.78964275,1.2106729,24.067532,10.564881,40.720085,35.936222,127.45058,10.0,-2.0,-13.0,-87.5,1199.0,9.883669,33.10964,78.5793,58.715714,13.0763235,52.614567,75.50723,47.11798,14.947491,12.206591,39.67865,47.432606,49.87399,47.74309,37.76765,41.136448,659.391
224,170.0,23.0,19.4,48.0,2107.0,-0.12105367,1.4403816,1.2762367,0.7934098,4.943577,2.7902942,0.8224875,0.6542564,3.0389135,6.5987372,2.4043145,1.6934193,40.47879,20.336662,40.720085,32.370197,160.2407,-31.0,-51.0,-278.0,-252.5,1991.0,9.61607,20.193556,60.255886,62.579464,6.698479,20.45543,25.949892,18.618221,7.400526,5.875954,11.3531,16.045433,16.627085,16.572126,9.362839,11.646277,319.25034
225,4.0,0.0,21.4,9.0,1023.0,0.26774058,1.4123539,3.4092658,2.3817844,11.014359,8.284794,3.5789733,1.7582188,4.0340137,9.433608,5.046581,2.0575051,40.47879,23.907633,37.736217,27.521746,182.32358,9.0,-62.0,-625.0,-1019.5,2851.0,6.885003,14.283822,44.624027,31.172176,5.209476,12.97334,16.163166,7.2863526,6.649004,4.4976354,7.4669285,10.371831,8.125119,8.792246,4.547616,6.7387342,195.78648
226,0.0,0.0,17.4,10.0,1017.0,0.33360857,1.3928107,5.5226474,4.6340737,11.523149,8.7795315,5.853847,4.108561,3.0389135,9.686583,6.338451,2.9390907,34.684605,20.07368,23.348576,17.36281,159.62094,121.0,-80.0,-725.0,-924.5,2749.0,5.07679,5.114766,23.645708,11.73567,2.6205654,6.145893,7.576384,2.6306498,3.8177493,1.652715,2.4180098,5.3174686,1.2868747,5.444812,2.037393,3.0078294,89.529274
227,0.0,0.0,16.4,12.0,1018.0,0.6666753,1.4010928,5.5226474,5.2761517,12.037035,9.565674,6.6079865,5.180305,2.246486,9.183485,7.2501297,3.5884075,28.22093,16.34999,17.777456,12.850496,143.72495,65.0,-160.0,-1200.0,2662.5,-121.0,0.042851478,1.2303094,8.0002,2.0553083,0.7340273,2.820987,3.1121166,1.0517898,1.4518281,0.56066465,-0.265083,0.32403058,-0.46336022,2.133737,1.7960656,1.2864833,25.871958
228,-1.0,1.0,19.4,10.0,1016.0,1.0047917,1.4228159,6.166955,4.9553266,12.45168,10.347331,7.7570057,5.5843616,2.6352377,8.691483,7.1738205,3.4775834,23.87919,13.504213,13.394816,9.999737,132.44635,65.0,23.0,-503.0,474.5,384.0,-1.4358213,0.9771192,3.9856157,1.829602,0.19542743,1.9976285,1.5774769,1.0517898,0.6714788,0.21371318,-1.1658283,-0.05463071,-0.78762144,1.2547106,1.6896365,1.2416102,13.241908
229,-1.0,1.0,15.4,1.0,1016.0,1.0047917,1.5740399,7.9405265,5.914142,13.926627,11.419022,9.587317,7.713974,2.7015076,8.936135,8.330304,3.9863725,18.067493,11.326618,10.2377615,7.605919,130.27255,65.0,100.0,-336.0,688.5,710.0,-1.4358213,0.8470152,4.571924,1.5977693,0.19542743,1.8158207,2.107435,1.010809,1.0417095,0.35284844,-1.2835648,-0.31848976,-0.78762144,1.5678179,1.7236276,1.2416102,14.248317
230,-1.0,1.0,19.4,-5.0,1016.0,1.6217637,2.2307055,9.173138,5.9934044,15.437547,13.866989,11.231256,9.450921,3.2460546,8.936135,9.523778,4.64849,13.811367,8.903955,8.068382,6.469582,132.61348,79.0,98.0,-270.0,341.5,1086.0,-1.2361121,0.8030891,3.0744002,0.98994243,0.19542743,1.6343597,0.98361367,0.95391834,0.98956037,0.21371318,-1.1658283,-0.5918653,-0.78762144,0.7438967,1.7773298,1.063208,9.641031
231,-3.0,1.0,18.4,-13.0,1019.0,2.0363882,3.0934598,10.893255,4.6340737,17.097773,16.474554,13.556379,13.189242,3.3860435,8.772738,11.027047,5.567128,9.465908,7.530834,6.249261,4.944598,137.9187,76.0,38.0,85.0,-92.5,2289.0,-1.6399729,0.8030891,3.0744002,1.3595916,0.0075720334,1.6343597,1.5774769,1.0952252,0.98956037,0.21371318,-1.0492775,-0.8750856,-0.8909022,0.37403148,1.6896365,0.93042964,9.293848
232,-6.0,0.0,24.4,-14.0,1022.0,1.9671865,3.2776413,12.269457,5.436204,19.62203,20.486643,17.75411,15.972962,3.8148162,8.369344,12.082966,6.1341233,4.6032834,5.734235,4.833611,3.6342266,145.99286,96.0,77.0,-75.0,-772.5,3054.0,-1.2361121,0.7588746,2.7619822,1.4794873,0.5584241,1.4532084,0.8240151,0.99123603,0.831693,0.49150878,-1.2835648,-0.73222435,-0.8909022,-0.6632031,1.7236276,0.75452423,7.8225746
233,-12.0,2.0,29.4,-26.0,1056.0,2.7289093,4.0706396,13.268996,6.85599,25.80129,30.963413,31.614422,23.944496,4.4817076,5.0849996,10.181035,4.711158,-1.259377,2.9134114,1.8209734,2.0223417,169.20439,42.0,111.0,-131.0,-2306.5,3489.0,-0.48041055,0.89065856,3.382443,1.829602,0.5584241,1.8158207,1.2891355,1.010809,1.093639,0.49150878,-0.9338939,-0.73222435,-0.83955836,0.37403148,1.7411377,0.93042964,12.421551
234,-2.0,4.0,40.4,-43.0,1306.0,3.5573568,4.5684805,14.30969,8.821027,28.063398,40.442383,41.91469,29.738071,4.4062443,3.5827963,5.4282846,2.3668404,-1.696427,2.7011983,2.0415127,1.5965828,191.84215,54.0,42.0,147.0,-3520.5,1569.0,-0.12755027,1.1048313,5.141786,2.3828495,0.5584241,1.7250491,1.2891355,1.010809,0.7251617,0.35284844,-1.1658283,-0.73222435,-0.9918219,0.37403148,1.6896365,1.1076535,14.44479
235,-14.0,4.0,17.4,-74.0,1248.0,3.8322961,4.495979,14.640675,9.920953,29.25462,51.0239,55.742416,34.76576,4.4817076,2.4077954,2.742042,1.3200173,-1.8406014,1.89382,0.7126377,1.2999499,216.69394,-126.0,37.0,-286.0,-81.5,76.0,-1.2361121,0.8030891,2.4451344,1.1148473,0.4691918,1.8158207,0.98361367,1.010809,0.6175037,0.8361624,-1.4025058,-0.45396748,1.7471316,4.60777,9.646585,9.870514,32.875587
236,-14.0,29.0,126.4,-168.0,1631.0,4.4486027,5.3925147,18.977547,17.246847,21.909357,44.041996,44.324043,25.240211,4.0340137,1.5882888,0.69453126,1.6407993,-2.2684703,0.076648206,-0.0015260516,0.61504555,187.96045,11.0,129.0,256.0,-326.5,1744.0,-0.48041055,0.8470152,3.9856157,0.8633111,0.6466931,1.5437478,0.8240151,0.972273,0.9371814,1.8547586,-0.48366562,0.20003936,19.12288,9.6924095,36.450203,28.97912,105.955185
237,0.0,54.0,250.4,-271.0,2304.0,4.4486027,5.5470343,23.542377,19.460407,16.206768,22.725788,16.4792,11.458379,4.633637,1.6504289,1.5285937,2.1606967,-1.9840063,0.6851398,0.14775467,0.67060435,129.36139,-111.0,-15.0,-6.0,65.5,1695.0,0.8370251,0.93402463,2.4451344,0.98994243,1.1576645,1.8158207,1.1386002,0.91902834,2.546537,9.153207,2.2458696,2.738852,31.815271,18.748598,40.31302,32.756462,150.55505
238,-129.0,49.0,527.4,-980.0,3363.0,3.1437426,4.495979,19.076591,8.226614,10.01308,10.639778,5.489456,4.0605416,3.8875318,0.91535604,1.9724811,1.7458507,-1.259377,2.1353598,-0.0015260516,0.5047848,75.04625,-21.0,2.0,-8.0,-35.5,1155.0,2.8026059,1.594975,5.966644,5.4453707,3.0530434,3.3756628,1.8498552,1.3212813,5.327815,11.721159,5.916357,5.605623,35.58693,21.353203,41.0374,34.37813,186.33604
239,-157.0,59.0,171.4,-1073.0,3320.0,0.7339428,1.451211,10.447722,3.283969,5.514334,4.0298014,2.2061024,1.8086818,1.6347744,0.7354111,1.3473394,1.2106729,-1.9840063,0.6851398,-0.0015260516,0.39568135,33.49925,-2.0,0.0,3.0,29.5,1035.0,4.5791016,2.0219975,11.039063,7.176723,4.476726,4.123947,3.9276881,1.8478172,6.065173,13.55904,7.254463,6.7884207,36.447994,22.108784,38.90339,33.28743,203.60777
240,88.0,128.0,-465.6,1171.0,3.0,-0.12105367,1.457644,2.10638,0.9224133,4.549605,3.0199368,1.0709035,0.9512385,0.9684,0.616364,1.6184045,1.155452,-2.1266322,0.9721238,0.29371065,0.5047848,17.959677,0.0,0.0,0.0,36.5,1028.0,4.70223,2.324209,11.23343,8.971325,4.6938777,5.171752,4.3261514,3.0964653,6.917366,13.38507,7.966488,7.427716,34.5566,22.361855,32.20751,28.221083,197.56313
241,3.0,111.0,629.4,1459.0,826.0,-0.18463928,1.4403816,1.2762367,0.9224133,4.2431016,3.0199368,0.9889792,1.1016273,0.61881757,0.7354111,0.50234115,0.9873286,-2.6891625,0.5374208,-0.15423518,0.67060435,14.016564,1.0,0.0,-2.0,38.5,1024.0,4.8466144,2.5112011,12.518122,8.845735,4.9131656,5.851352,4.402452,3.0964653,6.649004,12.787469,8.400348,7.494188,31.986588,19.733515,25.648867,23.691185,183.37625
242,6.0,71.0,342.4,766.0,299.0,-0.18463928,1.4403816,1.8338296,0.96878976,4.318986,2.6747057,0.9061793,1.1016273,0.61881757,0.55712366,0.69453126,0.8729667,-2.4095109,0.6851398,0.43644366,0.5047848,15.020157,1.0,0.0,-2.0,40.5,1022.0,4.9414277,2.8096924,13.6800375,9.677472,4.83981,6.8411903,5.124429,3.0422993,6.065173,12.04354,9.82444,7.6966825,28.210531,17.050255,19.659264,18.850998,170.35725
243,-11.0,0.0,299.4,699.0,516.0,-0.18463928,1.457644,0.9910614,1.0167646,4.092844,2.4419482,0.73788726,1.0012627,0.3890055,0.4980761,0.59876835,0.93039113,-2.6891625,0.5374208,0.43644366,0.78256816,13.038285,1.0,-1.0,-6.0,35.5,1021.0,4.7771173,3.3002625,15.817815,10.349606,5.1349406,8.267393,5.4697714,4.303055,6.917366,12.04354,11.103463,9.020255,25.971508,15.627591,17.350168,16.908419,172.36227
244,-17.0,-78.0,330.4,616.0,790.0,-0.12105367,1.4403816,1.2762367,0.8776882,4.3953676,2.32476,0.8224875,0.8019734,0.47883815,0.7354111,0.4052367,0.93039113,-2.6891625,0.38680553,0.97711205,0.89564586,13.938119,2.0,0.0,1.0,39.5,1022.0,4.970668,4.1780777,18.19264,11.8132715,5.1349406,8.893869,7.261047,6.5286713,7.470974,12.370914,13.016554,11.305025,22.700129,14.133935,15.6024685,15.0840225,178.6572
245,-33.0,-91.0,315.4,345.0,1030.0,-0.18463928,1.457644,1.5571373,0.7934098,4.2431016,2.32476,0.8224875,0.90133876,0.43356588,0.55712366,0.30744186,0.8729667,-2.5497446,0.5374208,0.8462926,1.125076,14.045383,2.0,0.0,-7.0,31.5,1021.0,5.1672816,5.3075037,20.512589,13.390047,5.35953,10.941176,8.414066,8.264907,8.121298,13.126836,15.762534,15.082424,21.329649,13.576128,14.0233135,14.805581,193.18488
246,-70.0,-5.0,172.4,-88.0,2282.0,-0.12105367,1.4403816,0.70154405,1.0167646,3.726226,2.6747057,0.8224875,0.85157853,0.6668297,0.55712366,0.50234115,0.93039113,-2.6891625,0.23323463,0.7126377,0.67060435,12.696635,3.0,-1.0,-7.0,21.5,1028.0,5.4696064,6.929494,22.702732,14.591095,5.7409024,12.39958,11.264445,11.104106,9.431277,13.126836,19.517109,19.111046,20.307316,14.701566,13.610242,14.713318,214.72066
247,-95.0,-53.0,294.4,-570.0,3549.0,-0.057094596,1.4403816,0.9910614,1.1697644,3.7984998,2.4419482,0.73788726,0.70329493,0.5248113,0.6757941,0.10972824,0.81503147,-2.6891625,0.5374208,0.8462926,0.5047848,12.550443,5.0,-2.0,-13.0,16.5,1033.0,5.6644297,8.975584,25.144098,18.137398,6.372094,15.341781,14.404647,14.880885,10.763879,14.179778,22.501553,25.955214,19.967896,16.09777,14.335219,15.648519,248.37073
248,-16.0,-90.0,329.4,-2749.0,3326.0,-0.12105367,1.4252973,2.3748534,1.5734816,4.092844,2.6747057,0.73788726,1.1519411,0.47883815,0.4980761,0.78964275,1.155452,-2.6891625,0.6851398,0.5760534,0.67060435,16.074602,4.0,-3.0,-18.0,6.5,1021.0,5.835094,11.599293,28.792664,24.203009,7.461712,19.521624,20.534405,18.48705,12.010915,13.911453,27.840246,29.98082,20.988253,18.748598,15.6024685,17.812586,293.3302
249,-100.0,-10.0,15.4,-3866.0,1049.0,0.007221496,1.4403816,1.5571373,1.6992114,3.871303,3.473341,0.73788726,0.9512385,0.47883815,0.616364,0.10972824,1.099836,-2.6891625,0.38680553,1.2306117,1.2999499,16.270693,-3.0,-2.0,-19.0,-3.5,1060.0,6.3024044,14.781687,36.28552,32.08625,8.452557,24.967535,28.435307,23.848331,12.474947,12.703488,31.719114,33.914543,27.177662,24.282381,19.302254,21.744457,358.47842
250,-80.0,-151.0,648.4,453.0,1093.0,0.007221496,1.457644,2.10638,0.68076545,4.3953676,2.4419482,0.73788726,0.85157853,0.47883815,1.2187611,0.20894347,1.3741843,10.900143,7.345344,32.408478,28.330606,94.944084,12.0,0.0,6.0,-21.5,1213.0,6.8418865,19.243942,47.65163,42.923397,9.411129,31.315498,38.280487,28.58835,12.288143,12.206591,31.366232,35.56776,34.728153,31.208555,24.6237,27.338408,433.58383
251,71.0,52.0,-827.6,167.0,2662.0,-0.12105367,1.457644,1.2762367,0.83466864,4.1677194,2.32476,0.5658967,0.6542564,0.76482123,3.5162926,1.255872,1.5879712,35.258934,16.821024,36.8639,28.166964,135.3959,10.0,0.0,-20.0,-55.5,1201.0,7.767716,25.350512,62.259354,56.168587,10.425174,40.52023,50.90858,33.100964,12.381346,11.403561,32.075077,39.066143,40.11266,36.13265,29.327417,30.723484,517.7235
252,40.0,-5.0,117.4,-103.0,1358.0,-0.12105367,1.457644,2.10638,1.2236229,6.8059382,3.6972456,0.8224875,0.7525398,3.8148162,6.377031,3.155655,1.5879712,38.92077,21.950169,34.770096,26.122885,153.44418,6.0,-6.0,-80.0,-99.5,1379.0,8.497753,29.113626,71.9308,68.6688,10.425174,43.444073,52.93309,35.181168,10.168832,8.726417,29.47921,37.456116,38.18085,34.398617,24.912514,27.62945,531.1464
253,10.0,0.0,6.4,-5.0,1079.0,-0.057094596,1.4123539,4.383518,3.129264,10.01308,8.18546,2.2061024,1.0513968,3.6704483,8.051687,4.5071473,1.7458507,39.5037,24.050514,37.516197,26.581238,175.95087,-12.0,-18.0,-130.0,-120.5,1565.0,7.2644706,24.802328,69.62638,76.49285,6.372094,31.315498,40.637962,29.29861,6.451353,5.5466223,17.96671,28.168291,23.04371,23.38082,13.098228,18.327145,421.79312
254,3.0,0.0,13.4,12.0,1026.0,0.007221496,1.4123539,7.3744555,5.675643,10.711632,8.085983,3.268118,2.4097579,3.315862,9.183485,5.656341,2.7815728,38.92077,24.481625,36.222992,25.229084,184.7369,14.0,-81.0,-457.0,-779.5,2315.0,5.187723,5.6063147,25.231522,16.542547,2.2524207,5.753618,6.160392,2.393138,3.2993891,1.652715,2.4180098,4.365916,1.361662,5.002525,2.0630407,2.6040897,91.89502
255,1.0,0.0,10.4,13.0,1019.0,0.07187854,1.4015145,6.9834685,7.6236744,10.812324,8.48306,4.361175,2.9023914,2.8352714,9.018281,6.1112294,3.1516924,37.18036,22.64008,31.09973,22.062788,176.73892,-63.0,-95.0,-325.0,511.5,3017.0,1.2694185,2.0219975,14.4422655,6.409285,1.0745817,3.5617473,3.7588587,1.7369052,2.100964,1.0416474,0.56897056,3.0574808,0.0038237423,2.6270168,1.8758498,1.8819481,47.432755
256,1.0,0.0,12.4,10.0,1016.0,0.20215318,1.3812605,6.9834685,6.7783346,10.311086,8.48306,5.071312,4.883565,2.3101974,8.854288,6.338451,3.5328472,33.920124,21.677078,26.778727,18.681463,166.18741,57.0,-185.0,-1352.0,2609.5,-518.0,-0.48041055,1.3944186,11.425002,3.9336476,0.6466931,2.453897,3.0113,1.1650007,1.6531804,0.42223722,-0.37384483,0.32403058,-0.3503668,2.6270168,1.7236276,1.5583291,31.133759
257,1.0,1.0,9.4,10.0,1018.0,0.399743,1.3776256,7.3744555,5.9934044,10.510909,8.878129,5.915283,6.3225226,2.1204014,8.051687,7.710036,3.3679087,30.304909,19.167053,22.316765,16.520647,156.33148,14.0,-36.0,-196.0,884.5,423.0,-1.0407807,1.1468977,8.932239,3.3875768,0.5584241,2.1798186,2.6938255,1.1411246,1.196879,0.07409091,-1.0492775,0.20003936,-0.6282208,1.7166096,1.7773298,1.4671906,23.753763
258,0.0,1.0,8.4,8.0,1014.0,0.33360857,1.4678346,9.504367,6.2304053,11.014359,8.582002,5.853847,7.4691157,1.5762802,7.6606536,6.4142046,3.4775834,27.84258,17.910593,20.886719,15.405948,151.6301,79.0,64.0,-278.0,604.5,416.0,-1.4358213,1.0625168,6.756792,2.901113,0.102053724,2.0886736,2.2310252,1.2146105,1.196879,0.14396366,-0.265083,0.68311673,-0.6282208,1.8604285,1.7590294,1.5583291,21.229404
259,0.0,0.0,5.4,5.0,1013.0,0.4661301,1.486036,8.123978,5.2761517,11.115699,9.075017,6.6079865,9.450921,1.5182995,7.199824,7.097593,3.7004547,27.464388,18.407558,20.190027,15.906722,153.08679,100.0,43.0,190.0,451.5,1008.0,-1.4358213,0.9771192,5.141786,2.1659312,0.19542743,1.9976285,1.8498552,1.1178664,1.196879,0.07409091,-0.594563,-1.1684794,-0.57387906,0.9198679,1.7773298,1.3765858,15.017625
260,0.0,0.0,7.4,4.0,1015.0,0.6666753,1.451211,8.832914,4.5537786,11.420976,9.369655,7.2028112,9.237022,1.5762802,7.583225,7.2501297,3.9284937,27.086351,18.282604,20.190027,15.208268,153.84044,109.0,-26.0,302.0,343.5,1307.0,-1.6399729,0.93402463,5.141786,2.0553083,-0.08804691,1.8158207,2.5826027,1.1411246,1.4011596,0.21371318,-0.70655483,0.44584686,-0.73508847,1.5678179,1.7590294,1.6961039,17.584675
261,0.0,0.0,9.4,3.0,1014.0,0.4661301,1.6552175,7.754489,3.834313,12.037035,9.663576,7.7570057,10.420064,1.9961398,7.6606536,7.5563045,4.221589,27.653465,18.658875,19.505068,15.505343,156.34526,112.0,-41.0,515.0,258.5,1897.0,-1.4358213,1.0625168,4.858885,2.1659312,0.28772232,1.9976285,1.9804242,1.0952252,1.1453588,0.28334093,-0.265083,-0.31848976,-0.68195605,0.37403148,1.7960656,1.1968503,15.542629
262,0.0,1.0,8.4,2.0,1015.0,0.93683517,1.6552175,7.3744555,3.283969,13.079354,11.029435,7.4076543,11.212634,2.3101974,8.449451,8.408526,4.64849,27.086351,18.658875,18.169392,13.769957,157.48079,115.0,-80.0,474.0,-347.5,2600.0,-0.66299367,0.93402463,3.9856157,2.0553083,0.5584241,1.8158207,1.1386002,1.1894958,1.0417095,0.21371318,-0.594563,-1.0204903,-0.6282208,1.2547106,1.7960656,1.1076535,14.184874
263,0.0,1.0,7.4,-1.0,1014.0,1.0047917,1.7823108,7.565816,3.3618097,14.03336,12.296606,8.412532,11.458379,3.1075768,9.10073,9.28132,5.295347,25.009851,17.179712,14.788184,12.223601,155.90192,110.0,-128.0,890.0,-1298.5,3073.0,-0.48041055,1.1048313,4.2808514,4.7653213,0.7340273,2.2710683,1.2891355,1.1650007,1.093639,0.6986356,-0.15736245,-1.3190942,-0.46336022,0.17979957,1.8758498,0.93042964,17.968365
264,0.0,1.0,8.4,-4.0,1028.0,2.7981143,2.915697,9.339853,3.7550151,17.66148,17.40002,15.581566,16.176334,3.7424543,9.433608,12.35451,7.527778,11.441983,9.776235,6.476035,4.7331743,151.11385,90.0,-142.0,992.0,-2648.5,2182.0,0.042851478,1.1468977,6.4971824,4.5251064,0.9060048,2.2710683,1.7155874,1.1894958,1.0417095,0.76745373,-0.265083,-0.18539117,-0.51892686,1.2547106,1.855131,1.1968503,23.440649
265,-11.0,0.0,11.4,-15.0,1037.0,3.419641,3.5977633,11.60098,3.67591,20.45162,24.001858,23.024551,21.72073,4.1077757,7.352446,11.549127,6.2808533,1.4933636,5.402182,2.9436123,2.3965816,153.019,-1.0,-80.0,1232.0,-3009.5,942.0,0.042851478,1.1048313,6.756792,4.277191,0.7340273,2.453897,1.7155874,1.3212813,0.9371814,0.49150878,0.05502413,-0.31848976,-0.23486347,1.0900853,1.8758498,1.3765858,23.67934
266,-28.0,-1.0,34.4,-27.0,1074.0,3.9695191,4.5684805,12.398861,5.115834,23.547432,30.963413,33.090885,28.41229,3.8148162,4.2560835,7.7870827,3.6442738,-1.696427,3.0166924,1.4738523,1.2413958,165.60448,-104.0,-21.0,-28.0,578.5,1088.0,-0.48041055,1.019948,3.0744002,2.697799,0.4691918,1.9976285,0.8240151,0.972273,0.8845624,1.5851934,-0.8196591,-0.73222435,16.955805,8.272873,26.715824,20.70824,84.14546
267,-6.0,0.0,27.4,-33.0,1487.0,4.1065826,4.641415,12.526919,5.914142,24.98978,41.66553,48.12249,40.30358,3.1075768,2.4718573,3.4805121,1.5349156,-2.4095109,1.7695807,0.8462926,1.1831039,194.25478,-144.0,24.0,-218.0,37.5,1933.0,0.6857004,0.89065856,4.858885,2.1659312,1.4024202,1.9066789,1.1386002,0.972273,2.4474108,8.028514,2.838057,2.9795694,29.929062,17.411108,33.363575,26.90765,137.9261
268,20.0,46.0,150.4,-39.0,2025.0,3.5573568,4.714773,14.640675,9.847912,14.4621105,25.312721,26.898993,24.328415,2.7015076,1.2799463,2.0597665,1.5349156,-1.9840063,1.2482224,0.7126377,0.726446,132.04237,-28.0,5.0,10.0,-14.5,1121.0,3.2621033,1.5552375,5.966644,5.8007965,2.8378036,3.7484727,1.2891355,1.4078239,4.03032,9.953936,5.7040024,4.6717596,31.815271,18.993937,31.460478,26.765587,159.2633
269,-8.0,35.0,54.4,-637.0,2802.0,2.174859,4.641415,15.177941,8.001606,10.913234,12.785519,9.918758,7.1120534,2.7681868,1.2799463,1.4382426,1.4816127,-1.9840063,1.5138919,0.29371065,0.61504555,78.13201,-5.0,2.0,-2.0,9.5,1028.0,4.1796045,1.9071398,11.039063,9.417262,4.0472956,4.123947,2.908056,2.1284273,5.2092443,10.705381,6.2688284,6.4236007,34.21364,19.48641,33.758644,28.673388,184.48993
270,67.0,54.0,1139.4,1467.0,712.0,-0.057094596,1.457644,1.5571373,1.6992114,4.092844,2.7902942,1.0709035,0.9512385,0.43356588,1.0968884,1.255872,0.7565612,-2.5497446,0.38680553,0.7126377,0.78256816,16.437336,-3.0,0.0,-6.0,20.5,1023.0,4.6216373,2.0219975,10.64178,10.6992235,4.0472956,3.9358644,3.306908,2.2580028,5.2683806,11.482523,6.9722276,6.3044367,34.728153,20.60276,34.768158,28.521788,190.18112
271,80.0,32.0,37.4,666.0,398.0,-0.24783452,1.457644,1.5571373,1.3353382,4.092844,2.905368,0.9061793,1.0513968,0.43356588,0.616364,1.5285937,0.7565612,-2.4095109,0.23323463,0.7126377,0.9525972,15.882117,0.0,0.0,-4.0,25.5,1021.0,4.342384,2.0980413,12.342434,9.546821,3.9761772,4.6925697,3.1121166,2.5338085,5.752408,10.705381,7.823119,7.36174,33.356853,20.10522,28.986982,24.720669,181.45674
272,92.0,-48.0,301.4,563.0,471.0,-0.057094596,1.4403816,2.10638,1.0662858,4.092844,2.6747057,0.9889792,1.1519411,0.47883815,0.6757941,1.0711957,1.099836,-2.2684703,0.38680553,1.2306117,1.1831039,17.322136,0.0,0.0,-3.0,25.5,1022.0,4.1796045,2.2866812,12.342434,9.161126,3.9761772,5.0755115,3.5835798,2.9357653,5.2092443,9.586847,7.609057,7.7652397,32.500458,19.733515,27.028763,23.191036,176.16504
273,83.0,-129.0,422.4,583.0,687.0,-0.18463928,1.4403816,1.2762367,1.0662858,3.583285,2.5585935,0.73788726,1.1016273,0.47883815,0.7354111,0.9779624,0.7565612,-2.5497446,0.38680553,1.1051883,0.89564586,14.366326,0.0,0.0,-4.0,27.5,1019.0,3.935926,2.361685,13.991358,9.677472,3.5506818,5.171752,4.090784,3.2065887,5.091851,9.733033,8.54639,8.116366,30.615398,20.47817,23.499413,21.27904,173.3459
274,80.0,-186.0,546.4,446.0,814.0,-0.057094596,1.4403816,1.8338296,1.1697644,3.7984998,2.32476,0.8224875,1.0012627,0.43356588,0.616364,0.9779624,0.57769346,-2.4095109,0.38680553,0.97711205,0.9525972,14.846482,0.0,0.0,-3.0,26.5,1023.0,3.935926,2.8844957,15.4245,11.658571,3.8341832,6.2445254,5.33217,5.505814,6.649004,11.090539,10.775677,10.829903,29.242119,18.748598,19.779205,18.327145,180.26237
275,81.0,-185.0,529.4,237.0,1124.0,-0.18463928,1.4403816,0.9910614,0.7934098,4.01848,2.5585935,0.9889792,1.0012627,0.43356588,0.616364,0.9779624,0.7565612,-2.5497446,0.6851398,1.5918413,1.0673144,15.186534,0.0,0.0,-3.0,21.5,1021.0,4.5791016,3.493094,16.31867,13.748484,4.0472956,7.7524157,5.124429,7.460044,6.516895,11.482523,12.298068,11.998511,25.626785,18.138039,17.912832,16.417652,182.91483
276,53.0,-168.0,573.4,-16.0,2084.0,0.07187854,1.457644,1.2762367,0.96878976,3.6544864,2.5585935,0.8224875,1.0513968,0.3890055,0.85519475,1.255872,1.099836,-2.4095109,0.38680553,0.5760534,1.0098207,15.024591,0.0,0.0,-3.0,19.5,1022.0,4.70223,3.7290332,17.573236,15.900281,4.6212745,7.1427283,5.7445154,7.37296,8.121298,12.1249075,13.108314,13.3712,24.420462,16.453169,17.799593,16.515171,188.70036
277,72.0,-291.0,1496.4,-550.0,2593.0,-0.057094596,1.4403816,0.9910614,1.0662858,3.5126266,2.32476,0.9889792,1.2023255,0.47883815,0.7354111,1.255872,0.81503147,-2.6891625,0.23323463,0.5760534,0.67060435,13.545208,0.0,0.0,-4.0,16.5,1023.0,5.0518126,4.5651703,17.679354,21.465502,4.7667184,8.893869,6.020869,9.202561,7.9012456,12.288591,15.450013,16.538885,22.014017,14.816176,17.238665,15.839001,199.73245
278,15.0,-318.0,2400.4,-1797.0,2245.0,-0.057094596,1.4771222,0.70154405,1.0662858,3.4425154,2.4419482,0.9061793,1.1016273,0.3890055,0.91535604,0.9779624,1.0438025,-2.5497446,0.076648206,0.8462926,0.9525972,13.732047,0.0,0.0,-5.0,14.5,1020.0,5.20736,4.9734573,19.23425,22.302029,4.83981,9.63676,7.4965444,10.284725,8.41985,13.38507,15.450013,18.322453,22.87188,14.359869,16.467031,14.713318,207.9644
279,-167.0,-191.0,1143.4,-2073.0,1421.0,-0.057094596,1.457644,1.2762367,1.1173024,3.6544864,2.4419482,0.8224875,1.1016273,0.3890055,0.6757941,0.69453126,1.2106729,-2.5497446,0.23323463,0.29371065,0.61504555,13.376889,0.0,-1.0,-5.0,12.5,1020.0,5.353236,5.3564835,19.761501,24.966404,5.1349406,10.501974,7.902731,10.284725,9.034774,13.212555,17.851374,21.549868,20.307316,13.686851,15.388932,13.98489,214.27855
280,-5.0,-147.0,174.4,-2230.0,1029.0,-0.18463928,1.4403816,0.70154405,0.96878976,3.6544864,2.6747057,0.8224875,1.1016273,0.34516808,0.7354111,0.8841156,1.0438025,-2.2684703,0.38680553,0.14775467,0.726446,13.180415,1.0,-1.0,-7.0,11.5,1028.0,5.448862,5.9704313,20.593706,28.538034,5.587233,11.496451,8.414066,11.000217,9.431277,13.55904,18.909475,22.945332,19.291449,14.021552,14.335219,13.361211,222.90352
281,-130.0,-109.0,821.4,-2818.0,1983.0,0.007221496,1.4403816,0.70154405,0.8776882,3.6544864,3.0199368,0.9061793,1.1519411,0.34516808,0.616364,1.1638281,0.9873286,-1.4058058,0.6851398,3.2172122,2.7147298,20.083344,3.0,-1.0,-8.0,9.5,1032.0,5.4796553,6.989371,21.775524,32.27124,5.663874,11.60835,8.590502,10.896747,9.113322,12.871791,19.888601,23.086288,18.11668,12.076215,13.098228,11.729727,223.25612
282,-168.0,-239.0,451.4,-284.0,890.0,-0.12105367,1.457644,0.9910614,0.7934098,3.372956,2.5585935,0.8224875,1.1016273,0.43356588,0.7952122,0.78964275,1.5349156,2.7801976,4.60953,10.630324,8.941756,41.49187,2.0,-2.0,-13.0,0.5,1029.0,5.5463796,6.929494,22.935944,32.643394,5.663874,13.437566,9.231972,10.588842,8.647652,11.403561,20.51943,22.523958,15.649856,12.179956,12.088065,10.583072,220.57301
283,41.0,1.0,-1469.6,7.0,2238.0,-0.057094596,1.4403816,0.70154405,1.3353382,5.4314775,5.430266,1.3115895,0.85157853,1.2363557,4.9451647,2.9912763,1.6407993,28.031736,16.002254,26.615995,22.322945,120.231606,1.0,-4.0,-20.0,-9.5,1019.0,5.593382,6.989371,22.470526,31.172176,5.8961544,13.906476,9.615214,10.487048,7.9742303,10.028016,16.728025,18.715073,13.586022,10.315585,10.51062,10.184826,204.17274
284,16.0,0.0,57.4,-9.0,1109.0,-0.18463928,1.4252973,3.6583142,2.824432,8.747444,7.98636,2.4149618,1.7077196,3.0389135,7.352446,4.19528,1.5879712,35.450573,18.407558,29.837166,23.391394,151.84119,-66.0,-74.0,-662.0,-212.5,1178.0,5.310114,5.3075037,21.62053,19.741358,4.6212745,8.999198,7.1838465,5.6575117,4.689898,4.8250103,7.254463,7.102582,4.4884577,6.3507104,4.283168,5.8205366,123.25615
285,0.0,0.0,24.4,1.0,1036.0,0.13686086,1.3860034,4.618141,3.3618097,10.611159,8.878129,4.1828904,2.4593809,4.5575056,10.551409,5.4282846,2.1091244,38.72679,18.78523,29.309332,22.851505,167.95355,21.0,-295.0,-1344.0,-107.5,1357.0,3.6591568,2.6604023,16.677794,11.891381,3.0530434,3.9358644,3.7588587,1.8860362,2.9453535,2.9209368,2.5877397,2.738852,0.57979983,3.971524,2.2625642,3.267437,68.79674
286,2.0,0.0,27.4,8.0,1022.0,0.399743,1.3928107,5.0770745,3.9137847,11.014359,10.249788,4.6570377,2.6570702,4.7868934,11.822281,6.1112294,2.1606967,39.893185,19.167053,28.10673,22.062788,173.47253,12.0,-452.0,-916.0,278.5,1434.0,1.7977515,1.2303094,9.156934,6.474852,1.562117,2.1798186,0.98361367,1.2403457,1.55275,1.517582,-0.05066585,1.1333346,-0.29293117,2.263515,2.01242,2.7037277,35.465477
287,-1.0,0.0,17.4,7.0,1027.0,0.6666753,1.3815645,4.618141,3.283969,11.6255245,9.173317,4.8343716,2.853482,4.4817076,12.486191,6.0354795,2.0575051,38.92077,17.910593,24.10216,19.955147,164.3866,-62.0,-573.0,-263.0,644.5,1093.0,0.37190607,0.8470152,7.7586427,2.901113,0.7340273,2.1798186,0.6596404,1.0309931,1.0417095,0.6986356,-0.37384483,1.2410557,-0.056820385,2.6270168,2.037393,2.505286,26.203588
288,-5.0,0.0,17.4,10.0,1020.0,0.80139965,1.4010928,3.9036653,3.3618097,12.86938,10.152206,5.429335,2.4593809,5.2545285,13.269826,6.4142046,1.9540591,36.6027,16.233545,18.96537,16.520647,155.59315,47.0,-435.0,-278.0,79.5,777.0,-0.12755027,0.9771192,6.4971824,2.901113,0.7340273,1.9976285,1.2891355,1.1178664,1.093639,0.90476316,-0.70655483,0.68311673,-0.29293117,2.7400236,2.01242,2.3101017,24.131102
289,0.0,1.0,16.4,4.0,1014.0,1.2779667,1.4228159,5.740567,4.313142,14.893788,12.394288,6.7377634,2.853482,6.059759,15.463186,6.945359,2.263766,33.538395,15.321432,16.500105,13.032068,158.75789,91.0,-260.0,-160.0,18.5,788.0,-0.48041055,0.93402463,5.141786,2.5941718,0.6466931,1.5437478,0.8240151,1.010809,1.0417095,0.97325766,-0.9338939,0.68311673,-0.23486347,2.5100186,2.01242,2.1180062,20.38461
290,1.0,1.0,20.4,0.0,1015.0,1.6217637,1.5270551,5.740567,4.9553266,15.986025,12.88347,7.8281126,2.9512265,6.6425176,15.793666,7.710036,2.7293699,31.824293,15.321432,13.966819,12.760129,160.2418,76.0,-169.0,583.0,340.5,868.0,-0.48041055,0.93402463,3.0744002,2.2751029,0.4691918,1.9976285,1.1386002,1.1178664,0.831693,0.62970644,-1.0492775,0.32403058,-0.056820385,2.5100186,1.9189618,1.6500318,17.284748
291,4.0,1.0,21.4,0.0,1014.0,1.8288808,1.6552175,5.301502,4.79471,16.539368,14.461412,9.343822,5.080868,7.0684614,15.57285,8.723175,3.2593055,29.167526,15.321432,14.5511,12.223601,164.89323,45.0,-215.0,418.0,241.5,797.0,-0.48041055,0.8030891,3.9856157,1.829602,0.4691918,1.9066789,0.8240151,1.0517898,1.0417095,0.76745373,-0.594563,-0.73222435,0.0038237423,2.7400236,1.9881066,1.8819481,17.485851
292,4.0,0.0,18.4,-1.0,1017.0,2.1056142,1.9692086,6.3755345,5.0355997,17.66148,15.059806,9.918758,6.823395,6.558301,15.029421,9.686591,3.6442738,28.599443,15.659369,14.433276,12.760129,171.3202,38.0,-257.0,-10.0,134.5,816.0,-1.0407807,0.89065856,4.858885,2.489197,0.4691918,1.7250491,0.8240151,1.0952252,0.7785629,0.42223722,-1.0492775,-0.8750856,0.0038237423,2.6270168,1.9413947,2.0704439,17.230556
293,6.0,0.0,16.4,-4.0,1014.0,2.3133843,2.6894217,7.3744555,5.436204,17.435343,13.177716,9.835169,7.9645166,5.0973477,13.5708065,10.515996,4.64849,27.086351,14.988536,14.788184,13.214776,170.1367,52.0,-289.0,-245.0,32.5,843.0,-0.66299367,0.89065856,3.6861637,2.5941718,0.4691918,1.9066789,1.1386002,1.1178664,1.093639,0.49150878,-0.9338939,-1.0204903,0.0038237423,2.6270168,1.9189618,1.7423282,17.06323
294,2.0,0.0,11.4,-4.0,1022.0,2.174859,2.5283742,8.483322,5.115834,17.888512,13.866989,10.517563,9.8896475,4.7100997,12.679561,11.373829,5.3625746,24.255915,14.5526705,13.7365265,12.312361,169.44864,55.0,-283.0,-192.0,-16.5,972.0,0.042851478,0.8030891,3.9856157,2.697799,0.82045513,1.5437478,1.2891355,1.1894958,0.98956037,0.62970644,-0.9338939,-0.18539117,0.12708709,3.0563838,1.8758498,1.5583291,19.48982
295,1.0,-1.0,7.4,-6.0,1016.0,2.7289093,3.0934598,9.339853,5.2761517,17.774883,14.262859,11.231256,12.303858,4.4062443,11.636182,11.903669,5.84667,20.872149,13.201458,12.835408,11.263763,167.97678,54.0,-262.0,23.0,-10.5,1078.0,0.37190607,0.89065856,3.382443,2.5941718,0.82045513,1.9066789,0.6596404,1.010809,1.196879,0.76745373,-0.594563,-0.73222435,0.06512451,2.849169,2.01242,1.8352468,19.03627
296,1.0,-1.0,9.4,-9.0,1016.0,2.5904427,3.2776413,9.504367,5.115834,17.322605,15.059806,12.263229,13.646595,4.331118,10.639791,12.082966,7.0449023,19.000439,11.771718,12.288915,11.006994,166.94734,19.0,-203.0,541.0,11.5,1134.0,-0.12755027,0.9771192,2.7619822,2.3828495,0.82045513,2.2710683,0.98361367,1.0517898,1.2482094,0.62970644,-0.594563,-0.8750856,-0.11681297,2.5100186,1.9189618,1.6500318,17.491793
297,1.0,-1.0,7.4,-11.0,1019.0,2.174859,3.532491,10.295482,5.1960216,17.66148,16.27069,13.454155,14.589936,3.5988016,9.517612,12.35451,7.8598576,17.136871,10.647044,10.2377615,9.425958,163.95354,85.0,-108.0,-720.0,767.5,904.0,0.8370251,1.0625168,4.2808514,3.3875768,1.2399805,2.0886736,1.1386002,1.0517898,1.2482094,0.8361624,-0.594563,-0.73222435,-0.23486347,2.6270168,1.9881066,1.6961039,21.920963
298,2.0,-1.0,6.4,-13.0,1020.0,2.3133843,2.9742117,9.666724,5.51611,17.66148,16.576723,13.762173,17.962185,3.4565961,8.6105175,12.082966,8.814449,14.546457,9.550935,8.494752,8.861718,160.85141,41.0,-18.0,-12.0,1410.5,1110.0,0.37190607,0.89065856,6.756792,6.540072,0.9060048,2.0886736,2.6938255,1.6660876,1.0417095,0.8361624,0.36622524,1.0237201,0.5130561,4.22847,2.2940571,3.110982,35.328403
