,left.ang.y,left.ang.z,left.acc.x,left.acc.y,left.acc.z,left.forces.0,left.forces.1,left.forces.2,left.forces.3,left.forces.4,left.forces.5,left.forces.6,left.forces.7,left.forces.8,left.forces.12,left.forces.13,left.forces.14,left.forces.17,left.forces.18,left.forces.21,left.forces.22,left.totalForce,right.ang.y,right.ang.z,right.acc.x,right.acc.y,right.acc.z,right.forces.0,right.forces.1,right.forces.2,right.forces.3,right.forces.4,right.forces.5,right.forces.6,right.forces.7,right.forces.8,right.forces.12,right.forces.13,right.forces.14,right.forces.17,right.forces.18,right.forces.21,right.forces.22,right.totalForce
0,-1.0,0.0,9.0,29.0,1007.0,3.3471012,4.127018,4.281402,6.317114,2.958924,12.819043,9.732066,10.202214,3.7949698,3.7880456,7.691327,6.9979773,7.529428,6.512121,5.2962117,4.857437,100.2524,-165.0,78.0,70.0,3571.0,1211.0,0.25089818,3.4836578,1.6247147,1.5047237,0.109927386,1.8693534,4.3955803,0.7005093,1.2607923,0.37804067,0.9206464,-0.38909772,-0.024885884,0.43781045,2.0843077,0.88176733,19.488747
1,24.0,-6.0,-65.0,-28.0,1257.0,2.8933523,7.6837544,12.445145,21.501661,3.6903212,23.655476,18.515032,19.3575,2.6980634,1.1427956,2.2432632,4.347464,1.4763035,1.1414834,2.2584534,2.1823156,127.23238,-34.0,-90.0,-145.0,1114.0,608.0,0.34307277,4.2258253,1.841129,1.4629576,-0.79731625,1.7351843,4.2182093,0.5802484,1.2908818,0.24858661,0.91615796,0.10285662,-0.3261457,0.37092736,2.0060406,1.6002291,19.818844
2,19.0,-9.0,-77.0,-65.0,1469.0,4.043613,11.128631,15.7985115,30.658451,2.620252,20.282745,18.630108,18.827707,1.3175522,1.3308556,1.4255674,2.8345199,1.2634943,0.99363226,2.930635,2.2930067,136.37927,25.0,-25.0,-116.0,328.0,1667.0,0.6169291,3.4169607,1.979106,1.5895666,-0.4744062,1.1998174,4.0479956,0.54091585,1.4356092,-0.15037605,0.9227458,-0.38909772,-0.44234455,0.43781045,2.1620681,2.949774,19.843073
3,34.0,-12.0,-66.0,-113.0,1651.0,4.8884096,14.026673,19.305254,45.728214,1.1345121,12.819043,13.168851,15.32328,1.9182317,1.0821,0.9935302,1.693604,1.1267163,0.78896344,3.255556,2.8640518,140.117,91.0,11.0,-315.0,27.0,2727.0,1.4885397,3.88536,1.7524498,1.7200705,-0.3714619,1.1998174,4.193462,0.44700068,1.3779742,0.24858661,0.9144459,0.19552408,-0.20746252,0.43781045,2.0060406,2.7263794,22.01454
4,44.0,51.0,195.0,-679.0,2821.0,2.6322873,5.8658576,5.0595255,5.583004,0.885016,1.8862287,4.046168,1.3140422,1.2162255,0.40170717,1.1570392,0.36030018,0.24034686,0.4635567,0.9042939,2.2930067,34.308605,59.0,-92.0,-97.0,-1927.0,2566.0,1.5713685,4.020673,2.7998602,1.9924934,-0.27079472,1.1330345,4.1444016,0.5802484,1.3779742,0.5057741,0.9274927,-0.5999362,-0.14720464,0.5056839,2.3161838,3.0580373,23.915287
5,45.0,-168.0,177.0,1925.0,1136.0,1.6641189,2.5429127,2.0273232,1.4436396,0.01652525,0.8495664,3.1756516,0.7506897,1.9321578,0.3179901,1.1903547,-0.49644136,0.34354064,0.29151344,2.4294593,2.4049075,20.883907,-40.0,-3.0,793.0,-4299.0,1287.0,1.3203002,4.3643737,3.0233667,2.086611,-0.3714619,1.668151,4.0479956,0.6487849,1.3092324,0.75618774,0.961709,-0.5999362,1.3945305,1.2410948,8.271304,6.8754573,36.997704
6,-16.0,22.0,-342.0,912.0,420.0,1.4772713,2.1438167,2.1223402,1.4436396,-0.12420734,1.0479956,3.062081,0.7506897,1.7918508,0.49160206,1.0762466,-0.49644136,0.50728446,-0.010825335,2.8482897,2.8056846,20.937319,-19.0,-25.0,303.0,144.0,2162.0,1.8144386,3.8180509,1.3183998,4.9855046,0.4575044,1.3334721,4.0479956,0.46653515,1.3092324,2.9334807,1.1155406,0.71459866,9.9745655,5.9184117,47.112514,31.98215,119.3024
7,-59.0,11.0,-618.0,-2264.0,1869.0,1.6641189,2.7519214,2.6844707,2.0956562,0.10589952,1.1136401,3.1185477,1.0338919,1.4200655,0.5387615,1.1570392,-0.49644136,0.34354064,0.112566754,2.765482,3.1001725,23.509333,-10.0,0.0,-18.0,30.0,1049.0,2.4202154,3.4836578,1.6665663,3.7415252,0.6196776,1.1330345,4.000637,0.45600685,2.199781,7.8627467,2.8657882,1.3876952,17.550272,8.268412,37.10143,26.143755,120.9012
8,-60.0,0.0,-473.0,223.0,1859.0,2.2410464,3.8045368,4.6664734,4.4174743,0.47034997,1.0479956,3.0340843,1.0721513,1.4200655,1.4608864,0.9924446,-0.43155134,5.710237,3.5130363,35.260994,31.879122,100.55934,3.0,0.0,-36.0,38.0,997.0,2.9610262,3.6839662,1.7091503,2.8963847,1.7345188,3.5608418,4.1688595,0.6487849,2.9101253,8.10198,4.0099845,1.7773296,16.440748,7.0541973,21.826788,14.35394,97.83863
9,73.0,7.0,168.0,61.0,1707.0,2.3060787,3.6467667,4.9935107,4.6516476,-0.029468155,0.98210907,2.9785597,0.36488646,1.1740463,4.3566513,1.9334912,0.8080192,13.35302,5.5773163,30.765827,31.217285,109.07974,-2.0,-1.0,-39.0,32.0,989.0,2.8319857,3.8180509,2.2713938,1.9460491,2.6571524,4.6628733,5.899135,2.5099792,3.2795475,7.922576,4.4176383,2.9279172,13.175613,6.5099106,13.754683,8.925811,87.510315
10,-1.0,0.0,-3.0,37.0,1009.0,2.8933523,3.6467667,4.472866,4.2273436,1.9649955,2.6422114,3.7513165,1.2311249,1.8669722,4.847407,4.368548,2.487695,16.81652,6.8899755,23.105442,23.699646,108.912186,-2.0,-2.0,-35.0,25.0,997.0,3.1469624,5.5463953,2.322056,2.1342795,4.4635816,7.605852,7.508643,5.8071394,4.3609962,8.221617,6.2937713,4.0901203,11.239457,7.123455,7.669297,7.362266,94.89588
11,0.0,0.0,-4.0,26.0,1003.0,3.6031992,4.712613,4.218085,4.322789,4.314169,11.98157,10.131681,9.373901,5.9581122,4.9293118,9.834914,6.2360935,9.871541,5.801335,6.0021625,4.6613693,105.95284,2.0,-2.0,-41.0,18.0,998.0,1.8935965,6.5443125,2.636487,1.6761407,5.00419,10.085888,10.196343,8.404987,4.7216444,8.4013195,6.990533,4.9654875,5.616367,4.334618,3.6508837,5.24901,90.3718
12,-2.0,1.0,-1.0,22.0,1006.0,3.3471012,5.2347794,3.782559,4.0336776,5.015802,14.468275,10.90017,11.1200695,7.2591105,4.847407,9.059377,7.142169,7.0606866,5.1477466,4.4178987,3.3403854,106.17721,0.0,-27.0,-596.0,-288.0,2966.0,0.6169291,3.8180509,1.3537469,1.5047237,-0.4744062,2.9483964,4.7730107,0.6487849,1.239265,0.11738434,0.91407496,-0.1864424,-0.14720464,0.43781045,2.3925955,-0.7789142,19.177805
13,-4.0,1.0,5.0,17.0,1011.0,3.4113867,5.2347794,4.092242,4.4174743,5.220796,17.373796,12.027534,12.513377,7.085387,3.8688605,9.641694,7.736801,3.9550714,3.9017746,2.8482897,2.3488076,105.67806,-5.0,-59.0,141.0,1197.0,464.0,0.8858494,3.4169607,1.2504195,1.2216991,-0.90978354,0.93285894,4.193462,0.8823086,1.3527391,0.11738434,0.91615796,-0.28676605,-0.3845588,0.5056839,1.6872956,1.0311154,16.812826
14,5.0,2.0,12.0,21.0,1026.0,3.539445,3.8842988,3.843906,5.1151457,5.5031896,20.631815,14.130636,14.729249,6.824736,3.0705388,8.180614,8.440397,1.6980313,2.4483325,1.7326152,1.7522303,105.525185,-9.0,-54.0,-14.0,561.0,1093.0,0.6169291,3.4169607,1.2839507,1.2607844,-0.27079472,1.400345,4.0479956,0.62470526,1.4356092,-0.015593896,0.9206464,0.46275258,-0.3261457,0.43781045,1.4413807,1.0311154,17.76845
15,21.0,-10.0,-75.0,-58.0,1432.0,3.8561904,7.5846205,11.686947,16.532938,3.3325207,22.787533,21.860281,25.051163,1.4060863,1.6623048,1.5139934,2.5865316,1.1267163,0.84098905,1.6430112,2.237508,125.70934,49.0,-37.0,-298.0,44.0,2078.0,1.0618607,3.3502357,1.6665663,1.340312,-0.79731625,1.1998174,4.095915,0.54091585,1.4356092,-0.015593896,0.91615796,-0.4934752,-0.26711157,0.57455915,1.7678958,1.6002291,17.976578
16,55.0,61.0,518.0,14.0,2711.0,3.0235422,6.613696,7.959351,16.150229,0.91704494,4.4181094,6.681063,6.1190004,1.4394279,0.5387615,0.9924446,1.2855103,0.99411494,0.99363226,1.0927552,4.0836864,63.30237,91.0,-24.0,620.0,-1700.0,2840.0,0.6169291,3.6171231,2.0742145,1.6761407,-0.57966906,2.0036645,4.0479956,0.5802484,1.4356092,-0.015593896,0.91407496,0.0083313575,-0.20746252,0.33785346,1.4413807,1.8683945,19.819239
17,12.0,-179.0,342.0,1342.0,643.0,1.5391406,2.4070313,2.2197025,1.4436396,0.061638564,0.8495664,3.1185477,0.78377414,1.7918508,0.3179901,1.1903547,-0.49644136,0.14204775,0.0512933,1.8216428,2.6897683,19.931547,-63.0,-26.0,1776.0,-5603.0,1148.0,0.9742058,3.6839662,1.979106,1.5047237,-0.3714619,1.8022515,4.0479956,0.7005093,1.405584,0.8789219,0.9274927,-0.1864424,1.8419023,1.2018073,8.800771,7.20618,36.39751
18,11.0,10.0,-27.0,448.0,1168.0,1.1754899,2.2739806,2.2692344,0.8810291,-0.07636962,0.78288835,3.1185477,0.78377414,1.4623692,0.49160206,1.1269534,-0.30362397,0.39694083,0.112566754,2.765482,3.040751,20.301615,10.0,99.0,204.0,227.0,1990.0,1.4048426,3.550366,1.6665663,3.9198847,-0.27079472,1.1330345,4.0242467,0.523243,1.3779742,2.1282513,0.961709,0.6322977,6.0000005,4.1639304,41.33114,27.78023,100.32692
19,-37.0,-7.0,222.0,49.0,2211.0,1.1169024,2.1438167,2.2197025,1.5951537,-0.17300975,1.0479956,3.062081,0.88707715,1.508163,0.3179901,1.100041,-0.43155134,0.39694083,0.0512933,2.0853581,2.8640518,19.792007,-12.0,0.0,-8.0,-35.0,1158.0,2.9610262,3.6839662,1.4270573,3.5084467,0.9224014,2.4749641,4.1200867,0.523243,1.8382001,6.45488,2.5873098,2.4477487,15.629544,8.942918,33.354595,22.775202,113.65159
20,-73.0,58.0,-409.0,-1904.0,2298.0,1.1754899,2.5429127,2.6308188,1.4436396,-0.029468155,1.0479956,3.1185477,1.399149,1.5575138,0.63730115,1.1570392,-0.36728334,0.39694083,0.0512933,3.1749787,2.9226873,22.859554,-1.0,0.0,-40.0,37.0,989.0,2.8319857,4.434259,2.026358,2.1823514,2.219202,4.040653,5.4326553,2.909392,2.199781,6.132327,2.8657882,2.6946414,11.475161,6.644352,16.09811,10.308552,84.495575
21,-66.0,17.0,-514.0,80.0,2132.0,1.727164,3.3384168,4.281402,4.929922,0.5075599,0.98210907,2.9785597,0.59584934,1.4623692,1.4608864,0.991665,-0.30362397,7.177032,4.1258044,35.806793,33.069324,103.13124,-3.0,-1.0,-32.0,30.0,995.0,3.0240164,4.9369726,2.4771082,2.4791176,2.7646146,4.7324224,5.6945014,3.9909394,2.3513258,6.6445236,4.666749,4.04695,11.122271,7.192983,12.5235615,8.885488,87.53355
22,67.0,2.0,47.0,3.0,1880.0,2.046764,3.568771,4.731459,4.7909904,1.0733712,1.5672483,3.0340843,0.6866062,1.4060863,4.4383087,3.1867063,1.4910696,17.115246,6.8899755,29.416761,27.94929,113.39274,-13.0,-3.0,-51.0,-5.0,1058.0,3.2659073,8.766424,1.5836129,3.6827445,5.00419,14.445354,16.23022,14.407324,3.804797,5.934269,4.335307,4.6750493,2.3064318,1.4416106,1.6060321,0.09050758,91.57979
23,0.0,0.0,-20.0,17.0,1039.0,2.6322873,3.3384168,4.155029,4.51152,1.8031381,3.2070608,4.251169,2.6199355,1.9182317,5.5022545,4.191704,2.5865316,18.785147,7.691746,25.24277,23.699646,116.13659,10.0,-2.0,-19.0,-64.0,1470.0,5.1067677,8.453587,3.6063776,12.85349,4.3407445,23.173222,32.883457,25.311836,1.3042525,3.9228933,1.5852243,0.54836124,2.1497214,1.085563,2.4686124,0.88176733,129.67589
24,-2.0,-1.0,-9.0,30.0,1006.0,2.6975994,3.568771,4.155029,3.9352038,2.0317552,3.7759173,4.645402,3.4021723,1.9708807,4.9293118,5.09625,2.934265,19.248404,6.7623324,21.995163,21.740868,112.88932,-105.0,106.0,-28.0,3715.0,553.0,0.15836105,3.4836578,1.3899724,1.2607844,0.19982682,1.6011511,4.5535374,0.6018505,1.5030708,0.11738434,0.91407496,0.46275258,-0.3261457,0.43781045,1.4413807,-1.3403915,16.459078
25,-1.0,-1.0,-7.0,33.0,1002.0,3.2180698,3.3384168,3.6607985,3.9845905,1.8031381,4.1596227,4.719731,3.1164157,1.9708807,5.093125,4.9115934,3.08469,14.912242,5.801335,17.383713,17.817474,98.97584,0.0,-1.0,71.0,1145.0,334.0,0.34307277,3.3502357,1.6247147,1.3807492,-0.79731625,1.4672487,4.1688595,0.91622525,1.4356092,0.11738434,0.91407496,-0.28676605,-0.20746252,0.43781045,1.5240719,0.09050758,16.47902
26,7.0,2.0,6.0,15.0,1026.0,2.5669734,3.8045368,4.155029,4.929922,4.751572,19.479216,14.040729,15.496486,6.304013,2.379787,7.300269,8.12313,1.4763035,2.5700607,1.5528215,1.8048427,100.73569,70.0,-16.0,-251.0,-52.0,2558.0,0.7071733,3.4169607,1.6665663,1.4629576,-0.90978354,1.1998174,4.095915,0.6740619,1.5405912,-0.15037605,0.9144459,0.10285662,-0.3261457,0.40424585,1.6872956,1.6002291,18.086811
27,33.0,-8.0,-79.0,-59.0,1435.0,3.730115,6.613696,11.461651,16.2456,2.7018344,23.281393,23.09278,29.73588,1.3175522,1.1427956,1.2366667,2.7351248,1.059888,0.84098905,1.8216428,1.9646784,128.98228,-30.0,-49.0,1916.0,-5732.0,1279.0,1.4885397,3.8180509,1.5037286,1.8544017,-0.07612673,2.2054105,4.0479956,0.7005093,1.4680909,0.63181406,0.9274927,-0.28676605,0.099798664,0.7153573,4.675206,5.4752364,29.24874
28,56.0,0.0,-77.0,-61.0,2424.0,2.8933523,9.5243845,16.652758,47.71048,1.0115192,6.8877997,9.409174,10.202214,2.5012906,0.5873412,0.99799067,2.0429382,1.059888,0.57467,2.5142007,3.3403854,117.91039,0.0,-19.0,462.0,55.0,2384.0,1.7343367,3.6171231,1.4270573,4.2237577,-0.4744062,1.400345,4.0242467,0.49203193,1.2489771,3.3986845,1.2455392,1.0281774,9.9745655,6.2442946,44.929924,30.007309,114.521965
29,11.0,72.0,415.0,-437.0,3227.0,1.2347175,4.2090483,2.6844707,2.4270191,0.5442065,2.0129592,3.8155587,0.88707715,1.508163,0.3179901,1.1903547,0.06630566,0.14204775,0.5194591,0.9988511,2.0186105,24.57684,-5.0,0.0,-34.0,24.0,1016.0,3.6517794,3.7509308,1.3183998,3.3372586,0.84932375,2.4749641,4.095915,0.55992734,1.8797586,7.0780916,2.794924,2.396417,16.577682,9.639433,34.730423,23.215767,118.351
30,-76.0,-14.0,202.0,-218.0,2734.0,1.2347175,2.2739806,2.170734,0.7105949,-0.2228055,0.78288835,3.0902352,0.85197794,1.4200655,0.3179901,1.1570392,-0.49644136,0.5642031,0.112566754,1.8216428,2.3488076,18.138199,-3.0,-1.0,-47.0,39.0,988.0,2.4914122,4.088737,2.026358,2.1823514,1.5677431,4.385531,4.607441,1.0236912,2.3513258,6.3269024,3.382508,2.0151806,12.803698,6.9852114,18.88789,11.925904,87.05188
31,39.0,14.0,93.0,59.0,1955.0,1.2945465,3.3384168,4.862074,4.4174743,-0.029468155,1.179053,3.0062442,0.6866062,1.3456658,4.1122165,1.4689012,0.41770005,14.197457,5.3595133,30.308538,29.001234,104.96617,-3.0,-1.0,-40.0,34.0,998.0,3.1469624,4.2258253,2.1716821,2.086611,2.620391,4.385531,5.529406,2.967648,2.9700725,7.1392016,4.0099845,3.5373461,11.951932,8.194821,14.3831415,9.180083,88.50063
32,6.0,-4.0,19.0,16.0,1070.0,1.4158595,3.4145896,4.862074,4.1792974,0.9487908,1.3092263,3.2333996,0.9962451,1.3451027,5.420509,3.1080737,1.893842,17.868671,6.512121,25.61786,25.539953,107.66562,0.0,-2.0,-41.0,25.0,1001.0,2.2005153,4.646642,2.5297706,1.9924934,4.2613177,6.649426,7.508643,4.98794,4.432389,8.221617,6.03328,4.4894414,10.542957,7.123455,5.9627185,7.045856,88.628456
33,0.0,0.0,-14.0,41.0,1002.0,3.1533458,4.5426297,4.281402,3.8855007,3.3818269,8.325409,7.8137555,7.5582027,4.354759,5.7471247,9.059377,6.1693916,12.523447,6.7623324,7.098086,6.7615557,101.41814,20.0,-5.0,-49.0,-12.0,1386.0,3.9472632,8.350797,1.3183998,3.6827445,6.0438356,16.806871,19.250067,15.552363,4.5762997,6.1975527,5.1730304,3.7910128,2.072062,1.5237316,1.5240719,0.41608608,100.22619
34,0.0,0.0,-11.0,38.0,1001.0,2.8281484,4.2090483,4.155029,4.08248,3.908314,11.4371,9.095213,9.57952,5.7857947,5.093125,10.315682,6.784995,10.779163,6.2686152,5.0076904,4.923165,104.25309,-89.0,-70.0,-566.0,-105.0,2804.0,3.206931,9.302377,5.8848,14.833332,2.7995899,10.005234,9.727493,6.628521,1.7977502,0.11738434,1.061603,0.37543488,0.9650231,0.8602836,1.9272367,-1.7320627,67.76093
35,67.0,8.0,-18.0,-138.0,2865.0,2.8281484,8.591317,15.714514,52.6672,0.9487908,5.0759573,7.704911,7.162114,1.8669722,0.5387615,1.0111572,1.8439589,1.059888,0.78896344,1.998005,4.4026217,114.203285,-73.0,122.0,414.0,4110.0,430.0,-0.3078242,3.2834423,1.3537469,1.1071887,0.109927386,1.6011511,4.5804095,0.62470526,1.3298384,0.24858661,0.91407496,-0.088089146,-0.26711157,0.40424585,1.7678958,-0.9626641,15.699524
36,59.0,89.0,398.0,-279.0,2612.0,1.7905391,7.485844,7.040881,9.459014,0.685652,3.5222948,5.4275823,3.7531648,1.158789,0.3179901,1.1269534,0.7533995,0.68147284,0.68309057,0.9988511,3.5844965,48.470016,-42.0,-145.0,175.0,1313.0,789.0,0.15836105,3.3502357,1.155537,1.1830697,0.109927386,1.668151,4.2182093,0.5802484,1.3527391,-0.015593896,0.9206464,0.28637108,-0.20746252,0.43781045,1.7678958,0.41608608,17.382235
37,-31.0,24.0,-182.0,1023.0,488.0,0.6762685,2.079835,2.2197025,0.96459174,-0.07636962,1.1136401,3.0902352,0.922828,1.7275879,0.3179901,1.1570392,-0.561967,0.39694083,0.0512933,2.1721714,1.3438697,17.595657,46.0,-30.0,-150.0,390.0,1568.0,0.34307277,3.550366,1.3183998,0.85634995,-0.79731625,1.6011511,4.0718846,0.54091585,1.3092324,-0.4254652,0.91615796,0.6322977,-0.26711157,0.37092736,1.4413807,1.4621098,16.924353
38,18.0,72.0,-319.0,721.0,834.0,0.7282036,2.2739806,2.170734,0.6236984,-0.3784427,0.8495664,3.1470196,0.6866062,1.5575138,0.3590551,1.1570392,-0.36728334,0.6222699,0.112566754,1.998005,1.3936595,16.934193,77.0,-23.0,790.0,-6072.0,1234.0,0.6169291,3.7509308,1.7964481,1.4216319,-0.27079472,2.2054105,4.095915,0.6487849,1.405584,0.5057741,0.93664944,-0.1864424,-0.024885884,0.43781045,3.2858672,3.5664854,24.192097
39,-50.0,-10.0,373.0,136.0,2025.0,1.1169024,1.9541074,2.3699443,0.8810291,0.01652525,0.98210907,3.0062442,0.78377414,1.3811861,0.4459035,1.1903547,-0.43155134,0.6222699,-0.010825335,2.344213,1.596444,18.24863,-11.0,99.0,-482.0,-965.0,975.0,0.8858494,3.550366,1.5836129,3.566203,-0.17236343,1.400345,3.977166,0.45600685,1.3092324,0.8789219,0.9480702,0.54836124,3.9718328,3.1414633,36.353115,24.727224,87.125404
40,-73.0,-30.0,494.0,-489.0,2734.0,1.0589948,2.6815696,2.6844707,1.1284728,-0.029468155,0.98210907,3.062081,0.78377414,1.3811861,0.27855557,1.1570392,-0.49644136,0.68147284,-0.010825335,2.2584534,1.596444,19.197891,4.0,0.0,-33.0,28.0,1000.0,2.5615838,3.8180509,1.3183998,2.581159,1.5096245,2.880619,4.7171702,1.0236912,2.199781,6.955314,3.0830038,2.6464665,15.629544,7.0541973,22.92972,14.257102,95.16543
41,-96.0,88.0,-611.0,-1884.0,2525.0,0.88976693,2.3401487,2.9036698,1.2881181,0.14933562,0.98210907,3.062081,0.9592206,1.4200655,0.3590551,1.1903547,-0.49644136,0.68147284,0.23265727,2.765482,2.0186105,20.745707,-1.0,-1.0,-38.0,23.0,996.0,2.4202154,4.2949038,2.2713938,1.9924934,3.519394,5.645242,6.5197487,4.3002615,3.2795475,7.8028865,4.5003333,3.494977,11.475161,7.123455,8.62291,7.6826725,84.945595
42,-31.0,138.0,-801.0,-3337.0,1901.0,0.83500034,2.1438167,3.0726268,1.8151741,-0.029468155,1.0479956,3.0902352,0.8175403,1.4623692,0.5387615,1.2269567,-0.43155134,0.39694083,0.29151344,2.6822035,2.072863,21.032978,3.0,-2.0,-43.0,13.0,1006.0,2.6307275,6.3705015,2.373238,1.340312,5.30697,8.359998,9.445474,7.514424,5.016331,8.88378,6.03328,4.264925,7.9120765,4.566103,4.3807387,5.7781706,90.17704
43,0.0,0.0,-6.0,25.0,1004.0,1.6641189,3.3384168,4.155029,4.6050444,2.3869514,5.961464,6.395645,4.9110518,2.765595,5.338715,7.202639,5.5248384,14.339616,6.8899755,10.73224,9.53426,95.745605,38.0,-6.0,-86.0,-29.0,1211.0,3.9935899,9.411694,1.2504195,2.7898107,6.2300797,18.933155,25.683186,16.987398,4.9421825,6.707174,6.3807435,3.3244283,1.5417067,1.4009615,1.4413807,0.09050758,111.10842
44,0.0,0.0,-7.0,22.0,1004.0,1.3549393,3.2628646,4.092242,5.347777,2.871112,7.9369373,6.92636,5.7974257,3.3365638,4.847407,7.984903,5.8420815,13.074824,6.512121,7.770249,7.327866,94.285675,-29.0,-37.0,-333.0,-160.0,2381.0,4.6405706,8.147481,5.427436,19.776583,3.2938569,14.539909,15.212989,10.365812,3.8727617,2.2333262,1.4910963,1.1028469,1.0353336,1.085563,1.8478655,-1.1498079,92.92362
45,53.0,2.0,-1.0,6.0,1074.0,2.1113656,3.8842988,7.5336604,10.882088,4.623358,20.167019,15.153634,15.496486,4.518674,1.8004907,4.9115934,8.520858,1.059888,1.7374675,1.7326152,1.9646784,106.09817,-166.0,152.0,472.0,3471.0,1418.0,-0.120884605,3.0147302,1.2504195,1.5469275,-0.79731625,1.668151,4.318669,0.9511102,1.2908818,0.37804067,0.9206464,1.0281774,-0.3845588,0.40424585,1.5240719,-0.5985127,16.3948
46,63.0,44.0,570.0,-25.0,2969.0,1.6641189,6.9009457,10.054206,27.603956,0.85268205,4.1596227,6.827415,6.183588,1.4394279,0.63730115,1.0021396,1.693604,0.99411494,1.3784666,1.5528215,2.5749655,75.51937,-55.0,-146.0,326.0,1318.0,534.0,0.06551421,3.2165387,1.7091503,1.3807492,-0.57966906,1.4672487,4.0718846,0.72810054,1.3779742,-0.15037605,0.91407496,0.95205396,-0.26711157,0.43781045,1.3579235,-0.07694865,16.60492
47,30.0,60.0,497.0,-632.0,3393.0,1.0589948,4.5426297,3.843906,3.683196,0.27496618,1.8862287,3.9462256,1.1504697,1.4623692,0.27855557,1.1570392,0.36030018,0.45152625,0.5194591,1.3706472,1.7522303,27.738743,-6.0,-71.0,-134.0,528.0,1351.0,0.34307277,3.4836578,1.0972501,1.1071887,-0.3714619,1.2666298,4.0718846,0.62470526,1.3779742,-0.15037605,0.91407496,-0.1864424,-0.14720464,0.47162265,1.3579235,1.0311154,16.291615
48,-49.0,28.0,-598.0,849.0,621.0,1.0589948,2.4746215,2.4211004,0.7105949,-0.3784427,0.9159696,3.0340843,0.6866062,1.6104891,0.3179901,1.1570392,-0.49644136,0.45152625,-0.010825335,1.6430112,2.072863,17.669184,49.0,-40.0,83.0,-3335.0,2196.0,0.5261351,3.4169607,1.7091503,1.7644256,-0.3714619,2.0036645,4.0479956,0.5802484,1.405584,0.37804067,0.91407496,0.10285662,-0.20746252,0.5399956,1.8478655,1.3212451,19.979319
49,-45.0,32.0,-511.0,563.0,1150.0,1.1169024,2.1438167,2.0745327,0.7963677,-0.3784427,0.8495664,3.0902352,0.59584934,1.4623692,0.27855557,1.1903547,-0.6281419,0.6222699,-0.010825335,2.4294593,2.237508,17.870377,-38.0,-37.0,384.0,57.0,2041.0,1.3203002,2.9469428,1.841129,3.9800036,-0.17236343,1.2666298,4.0479956,0.4395487,1.2316191,2.837085,1.282413,0.37543488,10.889226,7.403195,46.8641,28.965277,115.51854
50,-9.0,-30.0,-310.0,-1592.0,3192.0,0.7282036,2.2739806,2.5776458,0.7963677,-0.32549277,0.78288835,3.1185477,0.65562785,1.3811861,0.3179901,1.100041,-0.43155134,0.92940825,0.3496027,1.910103,2.237508,18.40206,0.0,0.0,-31.0,31.0,1000.0,2.4914122,3.6171231,1.7964481,3.2808964,2.5452807,3.0841057,4.8011785,1.9197445,2.2999146,6.5816,3.7707136,3.494977,15.230571,9.327147,24.189201,15.052653,103.48296
51,254.0,64.0,9.0,-2187.0,338.0,0.88976693,2.8946388,3.303518,1.7427802,-0.029468155,0.98210907,3.0340843,0.88707715,1.6104891,0.63730115,1.1570392,0.06630566,1.1267163,1.3319384,12.353868,12.1289015,44.117065,4.0,-1.0,-34.0,32.0,1002.0,2.5615838,4.718418,2.373238,2.086611,2.6934242,4.385531,5.594862,3.1439705,2.4567375,6.45488,3.5360787,3.4525232,8.654212,6.711981,10.748133,7.706742,77.27892
52,-71.0,26.0,-1014.0,7.0,2027.0,1.2945465,3.1879394,4.344976,4.929922,0.43255174,0.98210907,2.9785597,0.71829695,1.508163,1.9415414,0.9924446,-0.24055967,7.8867693,4.263411,37.506256,35.02497,107.7519,1.0,-2.0,-42.0,16.0,1012.0,1.6533073,5.867257,1.979106,1.9924934,4.505555,9.446789,9.501215,9.4377,3.5378888,6.2624063,5.088008,4.866938,3.3690608,3.5063636,2.9178655,3.7552009,77.68716
53,0.0,-1.0,-6.0,28.0,1005.0,2.046764,3.2628646,4.408799,4.6516476,1.8349859,3.712368,4.5354605,2.252199,1.9708807,5.9912996,4.547586,2.7847831,19.403563,7.485506,20.934608,20.588144,110.41145,0.0,-2.0,-45.0,-74.0,1347.0,5.0751734,7.848232,4.0312834,16.225424,3.7518406,22.059713,30.283167,25.463999,1.4078658,3.837927,1.4029105,0.46275258,2.072062,1.0473517,2.3925955,0.09050758,127.4528
54,0.0,-1.0,-4.0,24.0,1001.0,1.727164,4.127018,4.862074,3.683196,2.2762952,5.684944,6.029727,4.786412,2.9735923,5.093125,6.812983,5.1568575,13.213715,6.1493487,10.801177,9.232362,92.609985,-73.0,-29.0,-159.0,-229.0,2533.0,3.5994637,8.453587,7.3475733,26.122343,2.4678545,10.247873,11.605509,9.2422495,1.6475185,1.5823739,0.9274927,0.19552408,0.75722075,0.8971685,2.8436828,-0.7789142,87.158516
55,75.0,-16.0,-96.0,-191.0,2475.0,2.9584885,9.003039,15.54725,57.888294,0.7870102,5.1427746,7.868637,7.8902287,1.6328622,0.5387615,0.991665,2.092488,0.74179983,0.78896344,2.344213,3.2799594,119.49645,0.0,-57.0,-992.0,247.0,3247.0,0.7071733,3.0822277,1.0696614,1.1830697,-0.6872919,2.677582,4.5804095,0.523243,1.4680909,-0.28699034,0.9144459,0.19552408,-0.20746252,0.43781045,1.9272367,-0.9626641,16.622066
56,40.0,40.0,541.0,-87.0,3070.0,0.83500034,2.9669907,2.2692344,1.0470686,0.01652525,2.5167255,3.5014343,0.65562785,1.9321578,0.27855557,1.2269567,0.06630566,0.2913384,0.23265727,0.6166038,1.3438697,19.79705,28.0,-123.0,538.0,901.0,877.0,0.4348344,2.8788168,1.2504195,1.1830697,-0.4744062,1.2666298,4.1444016,0.62470526,1.5405912,-0.28699034,0.91615796,-0.088089146,-0.20746252,0.43781045,1.5240719,1.4621098,16.60667
57,-23.0,-67.0,122.0,936.0,308.0,0.78113025,2.3401487,2.4727764,0.7963677,-0.3784427,0.98210907,3.0340843,1.0338919,1.8600168,0.27855557,1.1903547,-0.561967,0.39694083,0.112566754,1.2786435,1.6480271,17.265203,53.0,-41.0,-40.0,64.0,2227.0,0.25089818,3.1494818,1.3899724,1.2607844,0.109927386,1.3334721,4.1444016,0.6018505,1.5405912,-0.4254652,0.9206464,0.19552408,-0.14720464,0.47162265,1.6060321,1.7356439,18.138178
58,-34.0,-24.0,347.0,266.0,1668.0,0.83500034,2.1438167,1.9347457,0.6236984,-0.2228055,1.3092263,2.9236548,0.7506897,1.3811861,0.27855557,1.1570392,-0.49644136,0.8032392,0.0512933,1.910103,1.3936595,16.77666,99.0,-61.0,489.0,-925.0,3153.0,0.25089818,3.4836578,1.6247147,1.1830697,-0.79731625,1.3334721,4.0718846,0.523243,1.4680909,-0.28699034,0.91407496,0.10285662,-0.26711157,0.37092736,1.9272367,1.9985209,17.90123
59,-91.0,-31.0,398.0,-737.0,2864.0,1.2347175,2.6815696,2.3193185,0.8810291,-0.27362347,1.7590426,3.1185477,0.71829695,1.6104891,0.27855557,1.1903547,-0.49644136,0.74179983,0.0512933,1.5528215,1.8577907,19.225561,3.0,0.0,-33.0,30.0,1001.0,2.3479967,3.6171231,1.9324735,2.3786235,2.620391,3.629187,4.9737105,2.5660594,2.1511,6.45488,3.5360787,3.4099627,13.93201,7.403195,18.092958,12.079832,91.12559
60,-99.0,7.0,-79.0,-1415.0,2917.0,1.001808,2.8229468,2.4727764,0.7963677,-0.32549277,1.695256,3.1185477,0.78377414,1.4200655,0.3590551,1.1570392,-0.36728334,0.74179983,0.0512933,1.910103,1.8577907,19.49585,0.0,-1.0,-40.0,25.0,994.0,2.2005153,4.2949038,2.636487,1.9000177,3.6843443,5.292146,7.0795727,4.6744094,2.9700725,6.2624063,4.583376,3.8758616,7.9120765,6.1785717,7.5846806,7.588408,78.71785
61,-39.0,26.0,-1213.0,-2657.0,2818.0,0.78113025,2.9669907,2.4727764,0.7963677,-0.12420734,1.6313276,3.1470196,0.6866062,1.3456658,0.4459035,1.1570392,-0.43155134,0.34354064,0.29151344,2.0853581,1.7522303,19.34771,2.0,-3.0,-48.0,16.0,1002.0,1.4885397,5.1607394,2.1716821,2.1342795,4.505555,7.1612763,8.298584,7.0079308,4.010088,6.707174,5.088008,4.915986,5.332957,5.1642427,5.2725763,6.446228,80.865845
62,32.0,92.0,-970.0,-4767.0,1825.0,0.78113025,3.4913764,3.1297653,1.8151741,-0.3784427,1.4385979,3.1185477,0.7506897,1.3456658,0.5387615,1.1269534,-0.30362397,0.86577916,0.62920773,6.622616,5.793586,30.765785,-67.0,-74.0,-610.0,-153.0,2337.0,2.6307275,6.2847457,6.4790845,14.064468,2.084077,8.283798,8.153379,5.491617,1.8382001,0.63181406,0.9954594,0.0083313575,0.8259624,0.6444469,1.8478655,-0.9626641,59.301308
63,-3.0,-60.0,15.0,-192.0,1803.0,1.2945465,3.3384168,4.344976,4.6050444,0.01652525,1.179053,3.0062442,0.62537205,1.5575138,1.0224552,1.100041,-0.30362397,3.5718834,2.893936,38.49262,35.20809,101.953094,-3.0,-75.0,301.0,894.0,626.0,0.06551421,3.3502357,1.3537469,1.340312,-0.4744062,1.5341839,4.1444016,0.62470526,1.4356092,-0.015593896,0.91407496,-0.088089146,-0.44234455,0.40424585,1.8478655,1.3212451,17.315704
64,9.0,-4.0,78.0,-29.0,1257.0,1.4158595,3.8842988,5.0595255,5.630482,0.91704494,1.3092263,3.0340843,0.45960155,1.4060863,4.1935925,2.5845795,1.9436258,16.519316,6.8259416,28.981894,26.367569,110.53273,30.0,-26.0,19.0,382.0,1384.0,-0.120884605,3.0147302,1.2178265,0.96101207,-0.79731625,1.1998174,4.0718846,0.62470526,1.4356092,-0.015593896,0.9206464,-0.38909772,-0.26711157,0.5056839,1.5240719,2.2510602,16.137043
65,0.0,-1.0,-6.0,28.0,1001.0,1.5391406,3.7253573,4.344976,4.55834,2.065618,5.6163993,5.6372266,3.7531648,3.1890934,4.5200353,6.521978,5.217255,14.912242,7.3501644,11.287328,10.846278,95.084595,88.0,-50.0,-162.0,-138.0,2512.0,0.25089818,3.4169607,1.4270573,1.1071887,-0.57966906,1.3334721,4.0479956,0.49203193,1.5030708,0.37804067,0.91407496,0.71459866,-0.26711157,0.47162265,2.0060406,2.7263794,19.942652
66,68.0,63.0,361.0,-112.0,2104.0,1.5391406,6.5187488,7.888204,13.658134,0.43255174,3.018574,5.9851313,4.2938585,1.1587968,0.49160206,1.100041,0.9162328,0.8032392,1.1414834,0.7131803,2.072863,51.731785,112.0,-58.0,175.0,-1021.0,2685.0,0.6169291,3.2834423,1.2839507,1.3807492,-0.3714619,1.668151,4.0718846,0.523243,1.4356092,0.11738434,0.9206464,0.28637108,-0.26711157,0.5056839,2.6195683,1.4621098,19.53715
67,56.0,-30.0,-86.0,611.0,609.0,0.7282036,2.2739806,2.1223402,0.7963677,-0.4325028,1.3092263,3.1185477,0.5670702,1.508163,0.27855557,1.1570392,-0.36728334,0.68147284,0.112566754,2.2584534,1.9646784,18.07688,-236.0,44.0,1592.0,-732.0,4902.0,0.25089818,3.2165387,1.4649823,1.7200705,-0.4744062,2.0036645,4.0242467,0.5802484,1.4680909,0.37804067,0.961709,0.10285662,1.5417067,1.4825337,9.070113,7.4068446,35.19814
68,51.0,-392.0,551.0,-1368.0,2027.0,1.0589948,2.6815696,2.2692344,0.96459174,-0.12420734,1.8862287,3.1470196,0.6866062,1.4623692,0.3590551,1.1570392,-0.49644136,0.68147284,0.0512933,2.0853581,2.0186105,19.888796,-19.0,2.0,-46.0,-19.0,1117.0,1.5713685,2.9469428,1.4649823,3.2248878,1.389375,2.8128917,4.3697925,0.6740619,1.5476893,4.951553,2.3877184,2.4477487,12.680647,9.482744,26.292572,17.601658,95.846634
69,65.0,-279.0,1555.0,-1925.0,1508.0,1.727164,2.5429127,2.2692344,0.8810291,-0.2228055,2.2023566,3.1185477,0.65562785,1.508163,0.40170717,1.1570392,-0.43155134,0.45152625,0.0512933,2.4294593,1.8577907,20.599493,3.0,0.0,-36.0,23.0,998.0,2.5615838,4.434259,1.6247147,4.409964,3.133092,5.292146,6.714413,5.8071394,3.0306902,5.595315,4.4176383,4.2208714,6.0969353,5.4112353,4.749203,6.446228,73.94543
70,-58.0,-146.0,1169.0,-1988.0,959.0,1.6014339,2.6815696,2.5776458,0.96459174,-0.27362347,0.98210907,3.0062442,0.78377414,1.4623692,0.27855557,1.1570392,-0.36728334,0.6222699,0.17301486,1.998005,1.9646784,19.612392,2.0,-1.0,-42.0,20.0,998.0,1.9717957,5.0855436,1.7091503,5.859692,3.0354097,5.858419,7.508643,5.5546904,2.9101253,5.8000937,4.0906787,4.4439206,4.686109,4.107593,3.5050826,5.0652957,71.19224
71,-67.0,-1.0,-62.0,38.0,1127.0,1.6641189,4.5426297,4.408799,5.630482,0.43255174,3.4591088,7.0768743,8.157145,1.4623692,0.90645456,1.1748288,5.5248384,2.4980848,3.0567033,4.4178987,4.4026217,58.815506,2.0,-1.0,-47.0,9.0,1005.0,2.8319857,6.4570227,1.5037286,11.163925,3.8204114,9.210634,8.853477,6.6917396,4.7948303,7.922576,5.860081,5.379094,3.0341156,3.0904613,1.7678958,3.2678807,85.64987
72,2.0,0.0,2.0,17.0,1005.0,2.5669734,5.412756,4.927692,7.115429,1.315259,7.18189,7.8137555,9.0331335,2.9033885,3.1491895,6.812983,7.889969,8.370716,7.485506,10.048928,7.327866,99.35543,1.0,-3.0,-56.0,5.0,1003.0,3.085993,5.867257,1.979106,13.499794,3.6177862,11.071844,8.853477,6.502098,4.7216444,7.8028865,6.990533,5.9451904,2.6253507,2.2206228,2.0843077,2.7263794,89.59426
73,0.0,-1.0,0.0,14.0,1003.0,2.5669734,4.2090483,2.6844707,4.6516476,1.0425442,5.684944,6.827415,8.627138,1.5907557,3.6269596,7.5935025,9.181018,10.387385,8.630221,11.568207,10.377645,99.24988,-13.0,-13.0,-87.0,-10.0,1031.0,3.2659073,7.084371,1.7524498,14.064468,3.519394,11.834582,9.501215,6.312498,3.0919623,5.595315,4.750436,5.272621,2.1497214,2.45309,2.0060406,2.2510602,84.905136
74,46.0,-11.0,-34.0,29.0,1082.0,4.351142,5.6832447,5.3254476,8.836267,0.39413992,4.679111,10.544974,20.578741,2.0886557,0.5387615,1.0575255,10.497483,1.3334224,1.6497122,1.1860161,3.3403854,82.08503,9.0,-305.0,-1273.0,-35.0,1072.0,1.0618607,4.5753713,1.1258825,6.0683184,1.389375,8.898602,7.597529,3.3224134,1.260994,1.1195782,1.5852243,0.10285662,0.62133616,1.0473517,2.0060406,0.5742951,42.357025
75,142.0,-14.0,-78.0,25.0,1261.0,3.539445,6.330086,6.001802,9.317694,0.10589952,2.2023566,9.537246,24.214483,1.9321578,0.49160206,0.9924446,6.3707576,1.1267163,1.2849917,0.9042939,2.3488076,76.70079,-8.0,-466.0,-381.0,423.0,969.0,-0.40133697,3.550366,1.155537,1.6761407,-0.90978354,2.2054105,4.5535374,0.8823086,1.2316191,0.63181406,0.961709,-0.28676605,0.22680476,0.8602836,1.6872956,0.254838,18.279778
76,127.0,5.0,-28.0,-16.0,1394.0,2.501676,4.971449,4.5371714,7.5157075,-0.2228055,1.7590426,6.3490024,20.578741,1.8600168,0.4459035,1.037792,2.8345199,0.8032392,0.8924309,0.9042939,2.2930067,59.06118,-20.0,-231.0,722.0,450.0,999.0,-0.120884605,3.4169607,1.3183998,1.4629576,-0.57966906,0.9995556,4.0479956,0.523243,1.3779742,0.63181406,0.9144459,0.19552408,-0.08634382,0.6797736,1.4413807,1.7356439,17.95877
77,236.0,-48.0,-392.0,183.0,1696.0,2.046764,3.4145896,2.6844707,3.9352038,0.61590886,1.695256,4.286012,6.183588,1.508163,0.40170717,1.0555149,0.8080192,0.34354064,0.4635567,0.22326112,2.1823156,31.847872,46.0,-28.0,-418.0,234.0,875.0,0.7071733,3.7509308,1.6247147,1.6326385,0.017956518,1.7351843,4.0718846,0.6018505,1.4680909,0.24858661,0.9480702,-0.28676605,1.1774951,1.6069535,6.1978283,6.744086,32.246677
78,17.0,-211.0,189.0,1232.0,516.0,1.6014339,1.9541074,1.8006647,0.35614976,-0.7205044,0.9159696,3.062081,0.88707715,1.6104891,0.24079579,1.1570392,-0.49644136,0.24034686,0.0512933,2.0853581,2.3488076,17.09467,-8.0,1.0,-25.0,62.0,983.0,1.2349375,3.8180509,1.5836129,1.9924934,-0.07612673,1.9364908,4.1200867,0.62470526,1.3298384,1.5823739,1.282413,0.7953007,5.5214853,4.2774434,14.594449,8.15985,52.777405
79,-15.0,-105.0,565.0,585.0,1008.0,1.3549393,1.7712145,2.6308188,0.35614976,-0.7205044,1.179053,3.1185477,0.8175403,1.7918508,0.4459035,1.1903547,-0.49644136,0.19057897,0.112566754,1.998005,1.9646784,17.705256,3.0,-1.0,-21.0,46.0,1000.0,2.4914122,3.0822277,1.5432782,1.6761407,1.1317731,2.070875,5.0325885,1.5286542,2.0108526,6.5816,3.6919596,3.1947386,15.763514,8.640426,23.428946,15.46822,97.337204
80,-52.0,-120.0,491.0,-501.0,2031.0,1.2945465,1.8314093,1.9807236,0.6236984,-0.17300975,0.8495664,3.0902352,1.1504697,1.6104891,0.3590551,1.1570392,-0.49644136,0.2913384,-0.010825335,2.4294593,1.7522303,17.739985,0.0,-1.0,-24.0,44.0,1002.0,2.2747612,3.8180509,1.7091503,1.7200705,2.3878675,3.629187,5.213436,2.6792462,3.2795475,7.3215666,4.5003333,3.5796535,14.705396,8.194821,15.880723,9.91442,90.80823
81,-90.0,-74.0,-110.0,-1898.0,1870.0,0.7282036,1.5953346,2.2692344,0.96459174,-0.27362347,0.9159696,3.4709802,0.78377414,1.6104891,0.49160206,1.1903547,-0.43155134,0.24034686,0.112566754,3.1749787,2.237508,19.080761,-1.0,-1.0,-25.0,41.0,996.0,1.8935965,3.6839662,1.886476,1.5047237,2.5452807,3.6975963,5.6945014,3.8067539,2.4567375,6.1975527,4.0906787,3.5796535,12.680647,7.83093,12.422601,8.925811,82.89751
82,0.0,0.0,16.0,14.0,1006.0,1.1754899,3.1136477,4.218085,3.2583425,1.315259,2.830355,4.3917203,1.621025,1.6328622,4.275075,4.279841,2.9842904,18.020485,6.6991467,22.322844,20.814535,102.95301,2.0,-4.0,-24.0,35.0,1008.0,0.5261351,4.504584,2.026358,2.3289623,3.961295,6.5768685,6.3680887,5.617781,3.4075916,6.7695646,4.9186883,4.6750493,7.3944683,5.8540554,5.80745,6.950114,77.68705
83,0.0,0.0,19.0,14.0,1000.0,1.727164,2.9669907,3.6003995,2.5540063,1.6164753,3.3329585,4.608549,2.4076498,1.4394279,4.4383087,3.845287,2.9842904,16.371284,5.973521,18.758215,17.516705,94.141235,4.0,-7.0,-46.0,21.0,1013.0,1.3203002,7.084371,1.7524498,5.517648,4.1837583,8.589698,9.3900585,7.2610555,3.153873,6.132327,4.335307,5.272621,2.787521,3.0904613,2.2393506,3.369534,75.48034
84,0.0,0.0,15.0,6.0,1006.0,1.2945465,3.4913764,3.0726268,4.8373284,2.46288,9.370677,8.091269,8.762133,3.7949698,4.1122165,8.376242,7.2881374,10.387385,7.41762,6.210329,7.4708943,96.44063,27.0,-9.0,6.0,-8.0,1213.0,3.5994637,7.2706466,2.1226606,14.930761,4.3407445,13.154247,13.209426,9.634216,3.0919623,5.8674054,5.003222,3.6641688,1.8419023,2.039704,2.3161838,1.4621098,93.548836
85,-10.0,3.0,28.0,-1.0,1030.0,2.2410464,3.2628646,3.3621864,5.301089,3.4822307,16.731487,12.750912,14.397838,6.0444465,2.2313905,5.9446487,9.522077,1.9284034,2.4889612,0.9042939,2.5179899,93.11188,39.0,-29.0,-192.0,-152.0,1652.0,4.814318,6.0320187,4.0312834,24.468374,3.1006808,16.197903,16.42235,8.597048,1.8797586,3.5773473,1.7901826,0.46275258,1.5417067,2.039704,1.7678958,0.09050758,96.813835
86,56.0,-3.0,-44.0,-117.0,1641.0,3.3471012,8.387328,15.7985115,33.309452,0.5803147,10.903763,13.168851,18.932457,1.158789,0.8501687,0.99799067,1.9436258,1.3334224,0.7363365,1.2786435,2.237508,114.964264,174.0,-97.0,-462.0,2965.0,819.0,0.06551421,3.1494818,1.155537,1.2607844,-0.3714619,1.400345,4.4738617,0.6487849,1.3092324,0.5057741,0.9206464,0.54836124,-0.14720464,0.5056839,1.1025935,-0.42141443,16.10652
87,64.0,1.0,-93.0,-189.0,2267.0,3.3471012,8.899652,15.9672575,53.33032,0.35508895,5.7537203,8.610835,9.0331335,1.247229,0.5387615,1.0021396,2.141981,0.6222699,0.84098905,2.0853581,2.5179899,116.29382,55.0,-60.0,341.0,-2561.0,2644.0,0.7071733,3.4836578,2.1226606,1.5469275,-0.6872919,0.93285894,4.0242467,0.62470526,1.5030708,0.37804067,0.9274927,-0.4934752,-0.08634382,0.47162265,1.3579235,1.8683945,18.681664
88,-10.0,39.0,-268.0,1065.0,582.0,0.88976693,2.2739806,2.4211004,0.7105949,-0.4325028,0.98210907,3.1470196,0.78377414,1.7918508,0.40170717,1.1903547,-0.49644136,0.2913384,-0.010825335,1.910103,1.8577907,17.71172,-172.0,70.0,-485.0,792.0,425.0,0.7968263,3.6839662,1.6247147,2.3786235,-0.4744062,1.7351843,4.0479956,0.523243,1.3779742,0.8789219,1.0876157,-0.1864424,2.5449398,1.9951746,17.08686,10.135487,49.236675
89,-41.0,46.0,-11.0,463.0,1240.0,0.6762685,2.2085342,2.3193185,0.26464337,-0.2228055,0.9159696,3.1756516,0.62537205,1.8600168,0.27855557,1.1269534,-0.49644136,0.39694083,0.23265727,1.7326152,2.072863,17.167114,-50.0,-20.0,163.0,73.0,1696.0,0.7968263,2.8103027,1.841129,3.2248878,-0.79731625,1.8693534,4.0242467,0.47855392,1.2607923,2.4395688,1.3209583,0.6322977,9.8621855,7.262783,37.67413,26.627766,101.32846
90,-119.0,-13.0,-68.0,-356.0,2824.0,0.5755724,2.2085342,2.1223402,1.0470686,-0.48770285,0.8495664,3.2625175,0.65562785,1.6671574,0.3590551,1.1269534,-0.36728334,0.45152625,0.112566754,2.1721714,1.8577907,17.613462,-5.0,0.0,-12.0,19.0,1021.0,1.2349375,3.2165387,1.5836129,3.0044339,1.7877057,2.6099975,4.3441553,0.9511102,1.7584327,6.0007005,3.009853,3.1070695,14.575306,10.684661,28.38407,20.935392,107.18798
91,-32.0,-30.0,-565.0,-2235.0,2233.0,0.83500034,2.2085342,2.5249617,1.1284728,-0.60164267,1.2442449,3.2333996,0.65562785,1.7275879,0.3179901,1.1903547,-0.49644136,0.2913384,0.29151344,2.765482,2.1823156,19.49874,0.0,0.0,-18.0,32.0,998.0,1.4885397,3.7509308,1.4649823,2.3289623,2.0372145,2.9483964,5.062288,3.2032287,2.3513258,5.2435646,2.8657882,3.0627968,10.087377,7.403195,14.913078,10.865953,79.07762
92,65.0,116.0,-1385.0,-4210.0,1076.0,0.62537456,2.4070313,2.7931712,1.5198902,-0.07636962,0.78288835,3.1185477,0.78377414,1.7918508,0.63730115,1.1570392,-0.561967,0.92940825,1.1897804,7.703294,6.902256,31.70327,-1.0,-1.0,-17.0,28.0,996.0,1.2349375,3.9528904,1.5037286,1.7200705,1.8906882,3.016225,5.9339485,5.3655314,1.9661077,4.801627,2.5873098,3.1070695,7.0888658,7.123455,9.98955,8.410813,69.692825
93,13.0,-3.0,112.0,-19.0,1395.0,0.88976693,2.8229468,4.344976,4.6981635,1.1951033,1.179053,3.1470196,0.6866062,1.4394279,5.2568808,2.9535556,1.9436258,20.34227,6.5740423,29.271006,26.93291,113.67735,-6.0,-4.0,-21.0,12.0,1018.0,0.9742058,5.867257,1.7091503,7.2969456,2.9693742,7.9054546,9.7849,11.974678,2.3513258,3.6651747,2.3877184,4.8183327,1.9948707,3.5596178,3.4320974,4.192791,74.883896
94,0.0,-1.0,11.0,22.0,1000.0,1.6014339,3.2628646,3.3621864,2.858772,1.6164753,2.955814,4.645402,2.5130994,1.9182317,5.338715,5.282478,3.0344293,17.265177,5.7447386,17.206491,16.253315,94.85962,-19.0,-5.0,142.0,-15.0,1424.0,2.2747612,7.555932,2.7449784,20.940434,3.1006808,12.530571,15.035007,13.988694,1.4330477,3.9228933,1.6344278,3.3672721,1.3216846,1.5652046,1.9272367,0.729508,94.072334
95,0.0,0.0,12.0,13.0,1007.0,1.4158595,3.8045368,3.3621864,4.6050444,4.49774,12.724765,8.789934,8.157145,7.6062,5.093125,9.059377,6.855551,10.910673,4.8409615,4.934934,5.4554,102.113434,29.0,1.0,-9.0,-101.0,1587.0,4.567982,6.5443125,3.9698658,29.106997,3.0354097,19.154316,21.527105,14.578024,1.2499111,3.1228504,1.1155406,0.37543488,1.2493383,1.2018073,2.694558,0.5742951,114.06773
96,-4.0,1.0,16.0,8.0,1010.0,1.6641189,3.4913764,2.9595702,4.976204,5.3607,16.944397,10.615219,10.977241,8.125234,4.3566513,8.961991,7.813158,5.929266,2.853388,1.6430112,3.3403854,100.01191,99.0,56.0,-1036.0,-279.0,2796.0,0.4348344,3.4836578,1.2178265,1.3003229,-0.07612673,1.5341839,4.0718846,0.47855392,1.5030708,-0.4254652,0.9206464,0.6322977,-0.3261457,0.47162265,1.7678958,1.6002291,18.589289
97,-4.0,2.0,26.0,5.0,1028.0,2.3712084,3.4145896,2.9595702,4.929922,6.4915633,20.748806,13.9513235,12.288474,8.038899,3.5467188,8.376242,7.5854445,2.0866559,1.693739,0.9042939,2.2930067,101.680466,-53.0,-61.0,1246.0,-4740.0,1047.0,1.0618607,3.4169607,1.4270573,1.340312,-0.57966906,2.1381233,4.0479956,0.6487849,1.3527391,0.24858661,0.9274927,-0.38909772,-0.08634382,0.6093758,5.4241104,5.001225,26.589512
98,42.0,4.0,15.0,-4.0,1041.0,2.9584885,3.4913764,3.721521,6.116102,7.7610216,25.05516,18.28681,17.324646,7.952491,2.682582,6.6188374,6.438724,1.6231482,1.7374675,0.8090736,2.237508,114.81495,-22.0,-11.0,713.0,-2.0,2052.0,0.7968263,2.671903,1.4649823,3.566203,-0.57966906,1.8693534,4.0242467,0.49203193,1.239265,3.0287282,1.3611367,0.46275258,9.8621855,6.779881,47.866817,33.095524,118.00217
99,0.0,-1.0,-44.0,-68.0,1308.0,4.1056147,6.9009457,9.397646,16.436956,6.4915633,31.612679,26.8616,21.398481,3.6396985,1.6623048,1.6594356,1.893842,1.6231482,0.9433062,0.5193339,2.5749655,137.72154,-14.0,1.0,-12.0,-11.0,1055.0,0.5261351,2.8103027,1.1258825,2.8963847,1.389375,1.668151,4.0479956,0.47855392,1.6475185,6.132327,3.0830038,2.54837,14.705396,10.684661,33.523315,25.03741,112.30478
100,-83.0,-8.0,338.0,83.0,1942.0,0.88976693,2.3401487,2.2692344,0.35614976,-0.12420734,1.3092263,3.0902352,0.5670702,1.5575138,0.27855557,1.0555149,-0.11616254,0.50728446,0.17301486,2.0853581,1.2944504,17.533155,3.0,0.0,-3.0,23.0,1008.0,1.4048426,2.9469428,1.5432782,3.2248878,1.6245738,2.6099975,4.4215207,1.179462,1.7584327,5.6640644,2.8657882,3.0627968,12.558055,8.121501,21.826788,14.95061,89.76354
101,-119.0,-87.0,5.0,-926.0,2936.0,0.6762685,2.5429127,2.1223402,0.7105949,-0.27362347,1.0479956,3.1185477,0.59584934,1.5575138,0.3179901,1.100041,-0.11616254,0.5642031,0.17301486,2.344213,1.1967388,17.678438,-1.0,-1.0,-12.0,20.0,998.0,0.7968263,4.434259,1.6665663,2.4791176,3.2938569,4.454742,6.3680887,5.8071394,2.792309,6.132327,4.0099845,3.6641688,8.016843,7.123455,8.800771,7.830722,77.67117
102,8.0,45.0,-637.0,-3749.0,1965.0,0.78113025,2.6815696,2.7931712,1.6694453,-0.17300975,1.8226972,3.062081,0.8175403,1.7275879,0.40170717,1.1903547,-0.30362397,0.45152625,0.17301486,2.8482897,1.596444,21.539927,-11.0,-6.0,-40.0,-5.0,1059.0,2.765928,7.084371,1.7091503,5.722018,4.1456485,12.354929,15.483918,16.397717,4.010088,5.098818,3.6137412,4.264925,1.4678724,1.6069535,1.4413807,1.4621098,88.62957
103,0.0,-1.0,7.0,25.0,1002.0,1.4772713,3.568771,3.9055545,3.4745047,1.7715249,3.1441905,4.8709135,3.1730397,2.2536836,4.7655163,6.521978,4.1820602,16.667727,7.1503725,13.1617565,12.957718,93.046585,6.0,-7.0,-31.0,-61.0,1750.0,5.043406,6.11551,4.3415313,25.699907,2.3878675,16.500782,19.250067,15.370568,1.3841316,2.0218422,0.9954594,-0.1864424,1.106159,1.2018073,1.8478655,0.88176733,103.96223
104,-4.0,1.0,12.0,12.0,1015.0,1.8542147,3.1879394,3.1297653,4.976204,4.435903,14.869004,10.90017,11.552572,6.9985046,4.03096,9.350997,7.967234,5.279783,3.4287827,1.910103,3.2799594,97.15209,-81.0,138.0,-655.0,4292.0,989.0,-0.02758699,2.5313163,1.0696614,0.89075863,-1.2622584,1.2666298,4.4215207,0.5802484,1.4356092,0.37804067,0.93664944,-0.38909772,-0.26711157,0.37092736,1.2736645,0.5742951,13.783266
105,27.0,-14.0,-133.0,-58.0,1881.0,4.1056147,8.083775,15.215556,32.960377,1.7401323,14.869004,16.864164,17.421066,2.6980634,0.9638952,1.0049974,1.5926688,1.1267163,0.68309057,1.3706472,2.4613025,123.16107,20.0,-177.0,402.0,919.0,1129.0,0.06551421,2.8788168,1.0431386,0.9256469,-0.79731625,1.3334721,4.095915,0.5802484,1.5405912,-0.28699034,0.91615796,-0.28676605,-0.3261457,0.43781045,1.8478655,1.3212451,15.289204
106,55.0,57.0,532.0,42.0,2816.0,1.7905391,7.2893815,8.387821,15.30126,0.85268205,5.0093393,6.92636,6.638057,1.2920246,0.5387615,1.0111572,1.1813626,0.8032392,1.6497122,0.6166038,1.9646784,61.25298,66.0,-32.0,23.0,313.0,2148.0,-0.3078242,3.4169607,0.8562051,0.89075863,-0.79731625,1.3334721,4.1200867,0.55992734,1.405584,-0.15037605,0.9144459,-0.1864424,-0.3261457,0.40424585,1.6060321,1.0311154,14.770729
107,74.0,-118.0,-97.0,2903.0,1499.0,0.9453843,2.1438167,1.9347457,0.6236984,-0.12420734,0.98210907,3.291799,0.78377414,1.8600168,0.24079579,1.0762466,-0.30362397,0.24034686,-0.20245335,0.42136043,1.4438157,15.357624,142.0,51.0,-413.0,-512.0,3494.0,0.06551421,3.0147302,0.99338055,1.1448987,-0.57966906,1.400345,4.0479956,0.523243,1.5030708,-0.015593896,0.9206464,-0.38909772,-0.3845588,0.47162265,1.4413807,1.0311154,15.189024
108,-11.0,7.0,110.0,1129.0,350.0,0.5755724,2.079835,2.3193185,1.0470686,-0.27362347,0.9159696,3.1185477,0.6866062,1.8600168,0.3179901,1.1570392,-0.36728334,0.34354064,0.0512933,1.8216428,1.9110706,17.564604,29.0,202.0,723.0,-38.0,1987.0,0.6169291,2.8788168,1.3899724,2.950226,-0.6872919,1.6011511,4.0479956,0.4395487,1.3779742,2.1282513,1.0375441,0.71459866,4.868853,4.802035,55.00474,35.010414,118.181755
109,-11.0,5.0,68.0,483.0,1190.0,0.83500034,2.2085342,2.3193185,0.7963677,-0.2228055,0.98210907,3.0062442,0.511785,1.8600168,0.24079579,1.2269567,-0.49644136,0.45152625,0.29151344,1.998005,1.596444,17.60537,-30.0,0.0,6.0,13.0,1244.0,0.7968263,2.671903,1.5037286,3.566203,0.28769568,1.2666298,4.0479956,0.523243,2.0566142,6.45488,3.009853,2.2915606,16.991486,10.035943,35.083954,27.282347,117.870865
110,-96.0,-10.0,235.0,-759.0,2998.0,0.83500034,2.3401487,2.3699443,0.8810291,-0.66044307,1.5672483,3.0340843,0.5670702,1.6671574,0.3179901,1.1269534,-0.43155134,0.45152625,0.23265727,2.1721714,1.5452119,18.0162,0.0,0.0,-15.0,23.0,1002.0,1.4885397,3.0822277,1.6665663,3.3372586,2.9693742,3.4243383,4.7450085,1.768762,2.6210375,6.066715,4.2533584,3.5796535,13.804771,9.797215,18.54584,13.877223,95.027885
111,199.0,-43.0,768.0,1082.0,-442.0,0.6762685,2.9669907,3.0726268,2.6163769,0.061638564,1.4385979,3.1185477,0.5390452,1.7918508,0.7412056,1.0762466,-0.49644136,1.6231482,1.3319384,16.68285,17.121206,54.3621,2.0,-1.0,-23.0,19.0,993.0,0.6169291,4.646642,1.7091503,2.086611,3.1653857,4.7324224,6.039627,4.549398,2.0108526,4.8769317,2.519852,3.1510415,5.807362,5.1642427,6.5156126,7.2286077,64.82067
112,-9.0,-127.0,-464.0,-102.0,1883.0,0.88976693,3.568771,4.218085,4.322789,0.19197413,0.9159696,2.9785597,0.41060627,2.1731606,1.0821,1.100041,-0.43155134,3.761971,2.9751854,48.71029,41.788925,118.65664,1.0,-3.0,-29.0,15.0,996.0,0.7968263,4.434259,1.7091503,3.5084467,2.9693742,6.432157,7.6874666,7.1977553,2.6773777,4.801627,3.3066435,3.8758616,3.6248229,4.802035,4.6013722,6.274377,68.699554
113,-75.0,48.0,-135.0,44.0,2076.0,0.78113025,2.6118977,4.281402,5.1615334,0.31537306,1.2442449,2.8156753,0.32253042,1.8600168,2.5302444,1.0575255,0.4746641,12.386659,5.044064,40.776585,35.949707,117.61325,21.0,-4.0,-18.0,-63.0,1224.0,4.4165444,6.8108315,3.4282095,25.421669,3.486907,18.064323,19.82483,12.796427,1.4078658,4.4142222,1.4910963,1.0281774,1.106159,1.2806534,1.9272367,0.41608608,107.321236
114,8.0,-3.0,116.0,-48.0,1216.0,0.5755724,2.6118977,4.6664734,5.2544928,0.7536271,0.98210907,2.8964322,0.38733146,1.4394279,5.583944,2.7290587,2.1914272,20.50001,7.9727635,31.7042,26.790537,117.0393,24.0,-7.0,-135.0,-144.0,1821.0,5.169527,6.6323757,4.847379,33.49678,2.9693742,17.324291,16.42235,8.789725,1.5796913,2.540784,1.2103754,-0.088089146,0.9650231,1.6069535,1.7678958,0.729508,105.96395
115,0.0,-1.0,19.0,19.0,997.0,1.2945465,3.964637,3.721521,3.579716,2.2045653,4.4181094,5.223736,3.229933,2.6314816,5.2568808,6.812983,4.403184,13.9143505,6.8899755,11.568207,10.689362,89.803185,1.0,-83.0,294.0,867.0,702.0,-0.40133697,2.9469428,1.0431386,1.0699425,-1.1422131,1.1998174,4.0718846,0.5802484,1.405584,-0.15037605,0.91615796,0.28637108,-0.26711157,0.43781045,1.7678958,0.5742951,14.339051
116,0.0,0.0,20.0,10.0,1004.0,1.5391406,3.8045368,3.303518,5.39457,2.7854345,9.619232,7.868637,7.293859,5.614027,3.9498367,8.278443,8.28085,9.871541,5.915724,3.9627042,4.923165,92.40523,17.0,-39.0,39.0,345.0,1492.0,0.06551421,2.671903,1.155537,0.89075863,-0.6872919,1.7351843,4.1200867,0.62470526,1.3527391,-0.15037605,0.91407496,-0.1864424,-0.3261457,0.47162265,2.1620681,1.1775941,15.991531
117,-3.0,2.0,28.0,6.0,1017.0,2.1113656,3.7253573,3.9674978,6.5227485,3.4317286,16.30925,10.267902,11.991678,6.1308823,2.9922156,8.082766,8.764984,2.3308513,2.5700607,1.1860161,2.2930067,92.67831,102.0,-36.0,-258.0,-39.0,2633.0,0.06551421,2.9469428,1.1258825,1.2607844,0.19982682,0.9995556,4.0718846,0.55992734,1.5405912,-0.015593896,0.91615796,0.19552408,-0.3845588,0.40424585,1.6872956,2.1260629,17.700043
118,-42.0,-4.0,100.0,-56.0,2138.0,0.83500034,2.4746215,2.1223402,1.2881181,-0.54407275,1.2442449,3.0062442,0.62537205,1.7275879,0.3179901,1.2269567,-0.30362397,0.45152625,0.112566754,1.910103,1.2944504,17.789427,-67.0,-22.0,181.0,66.0,2224.0,0.4348344,3.0147302,1.4649823,3.4510357,-0.6872919,1.400345,4.000637,0.45600685,1.2908818,3.2158692,1.5852243,0.46275258,11.357086,7.123455,46.61718,32.350384,117.53812
119,-86.0,46.0,-443.0,-1611.0,2149.0,0.83500034,2.6815696,2.3193185,1.4436396,-0.3784427,1.179053,3.062081,0.85197794,1.7918508,0.27855557,1.1269534,-0.30362397,0.39694083,0.17301486,2.4294593,1.5452119,19.43256,0.0,0.0,-12.0,31.0,1002.0,1.1487815,2.8788168,1.5836129,3.4510357,1.9405549,2.5424585,4.447614,0.6018505,2.403607,6.2624063,3.5360787,2.8821821,15.496065,9.639433,27.252663,20.935392,107.002556
120,160.0,-28.0,363.0,1484.0,1298.0,0.78113025,2.8229468,3.0726268,2.7389574,-0.029468155,1.3740072,2.8964322,0.59584934,1.8600168,0.68860215,1.100041,0.0060154353,1.5492356,1.5156964,15.341637,15.598036,51.91176,2.0,0.0,-19.0,34.0,996.0,1.1487815,3.0822277,1.7524498,2.230824,2.262535,3.2880745,4.500264,1.0236912,2.199781,6.066715,4.0099845,2.973247,11.593681,7.6158442,16.865652,12.002495,82.61625
121,-23.0,32.0,-1.0,62.0,1893.0,0.88976693,2.8946388,4.6017094,5.0224934,-0.12420734,0.98210907,2.8964322,0.38733146,1.7275879,2.682582,1.1213392,0.12608112,13.632867,4.403595,35.623745,31.546566,108.41464,0.0,-1.0,-17.0,30.0,990.0,1.3203002,3.550366,1.9324735,2.230824,2.5452807,3.6975963,4.5804095,2.3439438,2.4567375,5.8674054,4.335307,3.4525232,10.20062,7.403195,11.9217615,9.504641,77.34338
122,-1.0,0.0,11.0,27.0,1006.0,1.001808,3.1879394,3.843906,4.322789,1.9649955,2.7676418,4.1137366,1.399149,2.1946344,5.011221,4.1041574,2.6855364,20.34227,7.553822,23.105442,20.252329,107.85137,-2.0,-1.0,-18.0,25.0,996.0,1.8935965,4.5753713,2.636487,2.3289623,3.7179666,5.221841,5.594862,3.7456334,3.6703267,7.0168,5.3437295,4.133486,9.196914,7.83093,9.070113,7.755572,83.7326
123,0.0,0.0,12.0,23.0,1005.0,1.5391406,3.7253573,3.2452195,3.683196,2.4246933,6.7424,6.1196733,4.477374,3.3365638,5.5022545,7.0076156,5.096824,15.929499,6.954435,10.457656,9.232362,95.474266,13.0,-7.0,-95.0,-124.0,1604.0,5.1382117,6.0320187,3.6663237,22.525486,3.1006808,20.515633,22.966536,15.280465,1.4596487,3.3078067,1.2455392,0.0083313575,1.1774951,1.2410948,1.6872956,0.254838,109.60741
124,0.0,0.0,13.0,21.0,1004.0,1.8542147,3.7253573,3.0726268,4.322789,4.1950126,9.536073,8.035142,7.4920106,5.7857947,4.3566513,8.864526,6.645191,12.386659,6.5740423,5.5101504,5.6578174,98.01405,-66.0,-65.0,-184.0,-669.0,2521.0,0.8858494,5.01096,1.841129,3.1692352,1.7877057,5.929709,6.2935867,3.0849476,1.3618737,0.37804067,0.9480702,0.6322977,0.16301422,0.37092736,1.6060321,-1.5344609,31.928919
125,-2.0,0.0,11.0,16.0,1008.0,1.6014339,3.8842988,2.8482006,4.55834,4.751572,13.008516,9.732066,9.855141,6.824736,3.8688605,9.059377,6.926544,8.493013,4.5947556,2.8482897,4.147061,97.00221,-3.0,-51.0,291.0,1015.0,548.0,-0.02758699,3.4169607,1.1258825,1.0331625,-0.07612673,1.400345,4.0718846,0.6018505,1.4680909,0.11738434,0.91407496,-0.1864424,-0.26711157,0.40424585,1.9272367,1.1775941,17.101444
126,30.0,-3.0,15.0,-133.0,1792.0,4.592561,8.184629,17.6255,48.892998,1.6471323,11.527074,13.5117445,12.969585,2.3752713,0.63730115,0.99799067,1.4399922,1.1267163,0.4635567,0.9988511,2.1274328,129.11833,27.0,-36.0,-186.0,176.0,1831.0,0.34307277,3.3502357,1.0696614,0.9968515,-0.3714619,1.6011511,4.0718846,0.54091585,1.405584,-0.15037605,0.9206464,-0.1864424,-0.3845588,0.47162265,1.7678958,1.7356439,17.182327
127,60.0,-1.0,1.0,-216.0,2365.0,3.8561904,8.796565,15.882758,62.893223,1.2853009,7.4804616,7.704911,6.1190004,1.4394279,0.5873412,0.9924446,1.693604,0.99411494,0.84098905,1.2786435,2.1274328,123.97242,104.0,0.0,-486.0,-392.0,2949.0,0.06551421,3.4836578,1.3183998,1.3003229,-0.90978354,0.9995556,4.0479956,0.54091585,1.5030708,0.11738434,0.91407496,-0.28676605,-0.3845588,0.37092736,1.8478655,1.6002291,16.528805
128,59.0,-102.0,-192.0,2952.0,1468.0,0.83500034,2.4070313,1.8894016,0.8810291,-0.32549277,1.179053,3.2044446,0.5390452,1.9321578,0.3179901,1.1570392,-0.49644136,0.39694083,0.112566754,1.0927552,1.596444,16.718966,84.0,-85.0,538.0,-2401.0,2328.0,0.4348344,3.2165387,1.3183998,1.340312,-0.90978354,2.070875,4.095915,0.5802484,1.4356092,-0.15037605,0.9274927,0.10285662,-0.26711157,0.43781045,2.4686124,2.2510602,19.353294
129,30.0,88.0,-351.0,801.0,675.0,0.5755724,2.2085342,2.170734,0.96459174,-0.27362347,0.9159696,2.9785597,0.511785,2.0083463,0.27855557,1.1269534,-0.43155134,0.39694083,0.23265727,2.598446,1.6480271,17.9105,-43.0,-20.0,959.0,-3644.0,1171.0,-0.120884605,3.4169607,1.5836129,1.5047237,-1.2622584,2.2054105,4.0718846,0.7005093,1.405584,0.37804067,1.0154818,0.0083313575,0.8952313,0.8971685,6.838529,6.950114,30.48844
130,-92.0,-33.0,449.0,-155.0,2253.0,0.78113025,2.3401487,2.2692344,0.96459174,-0.2228055,0.9159696,3.0902352,0.62537205,1.8600168,0.3179901,1.100041,-0.49644136,0.5642031,0.17301486,1.910103,1.3438697,17.536674,-62.0,-25.0,153.0,87.0,1977.0,0.25089818,2.5313163,1.4649823,3.8006434,-0.07612673,1.5341839,4.0479956,0.46653515,1.3527391,3.6651747,1.4029105,0.87444043,10.42841,6.5769954,43.312607,29.309906,110.94361
131,-63.0,14.0,-981.0,-2397.0,2274.0,0.88976693,2.3401487,2.6308188,1.2881181,-0.32549277,0.9159696,3.0340843,0.85197794,1.6671574,0.3179901,1.1570392,-0.49644136,0.5642031,0.29151344,2.8482897,1.5452119,19.520355,2.0,0.0,-18.0,31.0,1000.0,1.8935965,2.9469428,1.5432782,2.230824,1.6801536,2.6099975,4.3697925,0.84938425,1.8382001,6.132327,4.0906787,3.2381856,14.575306,7.9756746,24.964258,15.155437,96.09404
132,410.0,-36.0,-1297.0,-3953.0,1026.0,0.83500034,2.6118977,2.6844707,1.5198902,0.01652525,1.4385979,3.0902352,0.71829695,1.6671574,0.8501687,1.0555149,0.12608112,1.4043623,1.3784666,9.981134,8.488203,37.866,-1.0,-1.0,-24.0,33.0,994.0,1.4885397,3.2834423,1.5432782,1.4629576,2.4281967,3.016225,4.6346316,1.5754421,2.510699,5.8674054,4.834421,3.4099627,11.239457,8.048452,16.865652,10.737072,82.94583
133,7.0,-42.0,-1073.0,98.0,2080.0,0.88976693,3.2628646,3.9674978,4.131015,0.7536271,1.0479956,2.9785597,0.45960155,1.7918508,1.2045084,0.99591917,-0.49644136,5.068451,3.1796443,39.510807,35.392124,104.13779,-1.0,-1.0,-23.0,25.0,998.0,1.8144386,3.6171231,1.7091503,1.4629576,2.9693742,4.1783752,5.6278796,3.5027225,3.0306902,6.7695646,5.1730304,3.7910128,12.435921,7.5446906,10.556635,8.54749,82.73106
134,-1.0,0.0,12.0,15.0,1007.0,0.88976693,2.8946388,4.0297294,4.4645696,1.7089458,2.1393056,3.8805258,1.3140422,1.8669722,5.093125,4.279841,2.6855364,21.775158,8.115857,25.24277,22.216928,112.59771,29.0,-7.0,-51.0,-35.0,1342.0,4.0838933,7.848232,1.2839507,4.599022,4.861193,15.601587,18.913239,13.500875,4.149196,6.5183907,6.03328,3.6219203,1.6908393,1.360586,1.5240719,1.0311154,96.62138
135,0.0,-1.0,15.0,19.0,998.0,1.4772713,3.568771,3.3621864,3.631664,1.867082,3.3329585,4.4992228,2.5130994,2.2536836,4.6836505,5.9446487,4.1820602,15.783008,7.01932,14.227514,12.457738,90.80389,18.0,-11.0,-121.0,-97.0,1761.0,5.6706624,6.901229,3.7265341,17.364204,3.7179666,23.680298,29.753288,17.087805,1.7202718,4.0901074,1.5374354,0.28637108,1.2493383,1.2410948,1.6060321,0.729508,120.362144
136,0.0,0.0,13.0,12.0,1005.0,1.6014339,4.127018,3.2452195,4.370219,3.6373787,8.169129,7.7591805,6.8994913,4.767274,4.3566513,8.474003,6.9979773,12.660659,6.954435,6.0021625,5.930001,95.95223,-54.0,-62.0,-467.0,-152.0,2733.0,3.206931,8.661406,6.4790845,17.469828,2.5452807,9.764601,9.6704235,6.3756933,2.1033704,0.75618774,1.1155406,0.87444043,1.4678724,0.8971685,1.1885669,-0.9626641,71.61374
137,-2.0,0.0,14.0,8.0,1009.0,1.4158595,3.7253573,3.1297653,4.6516476,4.078422,10.641277,8.551802,8.492466,6.0444465,3.6269596,7.984903,7.736801,7.529428,5.1477466,2.765482,3.9575717,89.47993,22.0,-75.0,-4.0,360.0,1562.0,-0.120884605,2.9469428,1.0431386,0.89075863,-0.90978354,1.4672487,4.0479956,0.54091585,1.4356092,-0.28699034,0.9274927,-0.4934752,-0.3261457,0.47162265,2.1620681,1.3212451,15.117758
138,55.0,0.0,-60.0,-20.0,1329.0,3.1533458,4.0455456,7.462999,11.768263,4.8823867,22.542675,18.4006,20.69375,4.354759,1.395426,2.8777246,5.9717765,1.6980313,1.1897804,0.7131803,1.9110706,113.06131,124.0,-4.0,-543.0,-187.0,2834.0,-0.02758699,3.0147302,1.1258825,0.9256469,-0.90978354,1.1330345,4.0242467,0.55992734,1.405584,-0.28699034,0.9206464,-0.8192602,-0.3845588,0.37092736,1.8478655,1.3212451,14.221558
139,-10.0,57.0,797.0,-395.0,3327.0,0.7282036,3.4145896,2.4727764,2.0956562,0.10589952,1.6313276,3.4709802,0.8175403,1.7918508,0.27855557,1.1903547,0.18535511,0.39694083,0.40694413,0.322673,1.4438157,20.753462,21.0,-24.0,1007.0,-4339.0,1800.0,0.5261351,3.2165387,1.6665663,1.1448987,-0.07612673,2.070875,4.0718846,0.62470526,1.4680909,-0.015593896,0.91615796,0.54836124,0.037163474,0.6093758,3.2125845,4.354865,24.37648
140,38.0,-139.0,431.0,1675.0,983.0,0.7282036,2.2739806,2.2197025,0.7963677,0.23384206,0.9159696,3.2044446,0.6866062,1.7918508,0.3179901,1.100041,-0.36728334,0.34354064,-0.13767837,1.0927552,1.6999571,16.900291,21.0,134.0,-419.0,135.0,1083.0,0.4348344,2.8788168,1.6665663,2.1342795,-0.57966906,1.6011511,4.0479956,0.47855392,1.4680909,1.3539933,0.9274927,0.28637108,3.2007153,3.2961597,36.725117,26.143755,86.064224
141,7.0,50.0,-144.0,572.0,1051.0,0.88976693,2.2085342,1.8006647,0.4464872,-0.27362347,0.78288835,3.0902352,0.5390452,1.7918508,0.27855557,1.100041,-0.43155134,0.39694083,-0.010825335,2.5142007,2.237508,17.360722,-61.0,6.0,-184.0,13.0,1603.0,0.7968263,3.0822277,1.4649823,2.8963847,-0.17236343,1.0662806,4.0479956,0.47855392,1.3219043,5.732319,2.3877184,1.7152687,14.835966,9.956093,36.168705,26.627766,112.40663
142,-60.0,-24.0,395.0,77.0,1934.0,0.5755724,2.5429127,1.9347457,0.6236984,-0.12420734,1.2442449,3.0062442,0.6866062,2.0083463,0.27855557,1.1269534,-0.49644136,0.45152625,-0.010825335,2.2584534,1.8048427,17.91123,2.0,0.0,-9.0,25.0,1004.0,1.5713685,3.0147302,1.3899724,2.581159,1.389375,2.745213,4.5535374,1.0998678,2.0566142,5.8674054,3.2314227,3.1947386,16.440748,9.327147,26.700804,19.467842,104.63195
143,-113.0,68.0,-163.0,-1943.0,2887.0,0.78113025,2.9669907,2.2197025,1.2881181,-0.12420734,1.1136401,2.9785597,0.85197794,1.7918508,0.3179901,1.1570392,-0.36728334,0.99411494,0.17301486,3.1749787,1.5452119,20.86283,0.0,-1.0,-29.0,26.0,988.0,2.0490227,3.2834423,1.3899724,1.5895666,2.084077,3.2880745,5.152443,2.2893772,2.403607,6.5183907,4.1718097,3.018198,9.9745655,6.443098,8.979994,8.101371,70.73701
144,-39.0,-2.0,-1079.0,144.0,2319.0,0.62537456,2.9669907,4.0297294,4.6516476,0.6510133,1.2442449,2.8156753,0.38733146,1.8600168,1.395426,1.0021396,-0.49644136,6.6010303,3.7702796,43.229702,36.137417,110.87158,0.0,-2.0,-22.0,18.0,1001.0,1.3203002,4.434259,1.6247147,1.5047237,3.9255676,5.645242,6.6750207,4.424669,3.804797,6.955314,5.7736545,4.003957,9.087527,5.726164,5.5002503,7.069235,77.4754
145,0.0,0.0,-21.0,14.0,1020.0,0.83500034,3.1136477,4.344976,4.7909904,2.3869514,1.7590426,3.1470196,0.5670702,1.5503165,5.1750145,3.676074,2.2408373,22.584057,8.333723,28.413082,23.196068,116.11387,3.0,-3.0,-23.0,11.0,1007.0,1.4885397,5.3901453,1.3899724,1.8544017,4.2223105,7.755321,8.347558,7.3243704,4.6487975,8.161788,6.2068624,4.628091,5.2393107,4.5078144,2.9178655,5.528642,79.611786
146,0.0,-2.0,6.0,20.0,1000.0,1.3549393,3.4913764,3.6003995,3.631664,2.5801973,3.2699814,4.4992228,2.3554626,1.7687734,5.338715,6.136271,2.934265,15.345865,6.6363835,15.423246,13.295757,91.66252,31.0,-5.0,-59.0,-119.0,1544.0,5.5747833,6.2847457,3.310909,19.662659,3.7859833,24.982025,29.061176,15.552363,1.7584327,4.0901074,1.4910963,0.10285662,1.5417067,1.4009615,1.6872956,-0.07694865,120.21016
147,-1.0,0.0,5.0,9.0,1007.0,0.9453843,3.4913764,3.187299,5.0224934,3.9643826,9.95496,7.868637,7.7572045,5.357635,3.7880456,7.5935025,7.2881374,9.489661,5.2528877,3.9627042,4.147061,89.07138,-45.0,-49.0,-493.0,-203.0,2742.0,3.3238995,8.766424,7.684489,24.334717,2.3050687,9.684827,9.557286,6.059765,2.3513258,2.2333262,1.145336,0.19552408,1.1774951,0.8971685,0.92786545,-0.9626641,79.68186
148,54.0,3.0,13.0,-1.0,1078.0,2.2410464,3.6467667,5.797316,10.417372,5.575401,20.631815,16.038876,15.32328,5.528382,2.085243,5.09625,7.813158,1.4763035,1.693739,0.9988511,1.6999571,106.06375,-120.0,181.0,-253.0,3302.0,1520.0,-0.21431808,2.671903,1.2504195,1.3003229,-0.79731625,1.8022515,4.4738617,0.84938425,1.3527391,0.37804067,0.91407496,0.10285662,-0.3845588,0.40424585,1.5240719,0.5742951,16.202274
149,23.0,0.0,-51.0,-37.0,1267.0,3.0235422,5.0587335,9.543037,18.494984,4.948769,23.281393,19.096918,18.312761,3.411361,1.1427956,2.3091314,4.403184,1.1267163,1.3784666,0.7131803,1.6999571,117.944916,8.0,-77.0,-80.0,535.0,1416.0,-0.21431808,2.8788168,0.9273085,0.788982,-1.1422131,1.1998174,4.0718846,0.49203193,1.4356092,0.11738434,0.91615796,-0.4934752,-0.3845588,0.40424585,1.5240719,1.3212451,13.84299
150,40.0,-2.0,-83.0,-172.0,2435.0,3.6667585,6.613696,19.016907,77.26822,1.2553014,6.3835726,8.376676,6.3130236,1.8171399,0.5873412,0.9924446,1.8439589,0.86577916,0.57467,1.2786435,2.0186105,138.87277,102.0,15.0,-655.0,-212.0,2659.0,0.06551421,3.0822277,1.0431386,1.0331625,-0.79731625,0.9995556,4.0479956,0.49203193,1.405584,-0.4254652,0.91407496,-0.4934752,-0.44234455,0.47162265,1.6872956,1.7356439,14.819246
151,6.0,51.0,649.0,-956.0,3431.0,0.6762685,3.8842988,4.092242,4.275169,0.23384206,1.9496464,3.9462256,1.0338919,1.3811861,0.3179901,1.1570392,0.0060154353,0.5642031,0.84098905,0.22326112,1.4438157,26.026081,53.0,-50.0,524.0,-3678.0,2176.0,-0.02758699,3.0147302,1.6247147,1.340312,-1.0247353,1.8022515,4.0479956,0.7005093,1.5030708,0.24858661,0.9480702,-0.088089146,-0.14720464,0.5399956,2.2393506,2.3735516,19.095524
152,-33.0,-48.0,326.0,1142.0,224.0,0.5269141,2.7519214,2.170734,0.7963677,-0.2228055,0.8495664,3.0902352,0.59584934,2.0083463,0.27855557,1.1903547,-0.30362397,0.50728446,-0.07380916,1.1860161,1.4438157,16.795721,-223.0,56.0,-159.0,1895.0,-977.0,-0.02758699,3.0822277,1.3537469,1.5047237,-1.3849128,1.8693534,4.0479956,0.523243,1.4356092,1.3539933,0.9954594,0.54836124,2.5449398,2.1296027,20.986675,12.236751,53.200184
153,10.0,39.0,-284.0,672.0,920.0,0.7282036,2.2085342,2.0273232,0.6236984,-0.27362347,0.9159696,3.0902352,0.6866062,2.0083463,0.3179901,1.1269534,-0.43155134,0.6222699,-0.07380916,2.765482,1.6999571,18.042585,-44.0,-32.0,85.0,82.0,2085.0,0.5261351,2.8788168,1.2504195,3.1692352,0.017956518,1.9364908,4.0718846,0.46653515,1.3779742,3.6651747,1.4029105,0.54836124,11.0055275,6.9852114,45.6443,31.98215,116.92908
154,0.0,24.0,-21.0,415.0,1238.0,0.78113025,2.016596,1.9347457,0.6236984,-0.17300975,0.98210907,3.062081,0.62537205,2.0886557,0.27855557,1.1570392,-0.43155134,0.50728446,0.0512933,2.8482897,1.4438157,17.796104,0.0,0.0,-23.0,26.0,1001.0,1.1487815,2.8103027,1.5037286,3.5084467,2.1300063,2.9483964,4.4215207,0.75680923,1.9661077,6.893622,3.8499825,3.0627968,16.032925,9.876517,27.955294,18.702461,107.5677
155,-38.0,6.0,157.0,284.0,1597.0,0.78113025,2.1438167,1.9807236,0.7105949,-0.07636962,0.78288835,3.0062442,0.6866062,1.8600168,0.27855557,1.1269534,-0.561967,0.74179983,0.0512933,2.8482897,1.596444,17.95702,2.0,0.0,-29.0,29.0,995.0,1.1487815,3.1494818,1.7964481,2.3289623,1.8906882,3.5608418,4.5804095,1.4825194,2.7344742,6.2624063,4.0906787,3.1947386,10.314298,7.9756746,13.650752,9.553555,77.71471
156,-49.0,-1.0,217.0,43.0,2290.0,0.62537456,2.3401487,2.0273232,0.8810291,-0.27362347,0.7159244,3.0340843,0.85197794,1.9321578,0.3179901,1.100041,-0.43155134,0.50728446,0.112566754,2.6822035,1.2944504,17.717382,0.0,-1.0,-29.0,23.0,998.0,1.7343367,4.020673,1.979106,1.6326385,3.2617986,4.5934114,5.6278796,3.5027225,3.804797,6.5816,5.6873584,4.003957,7.7037897,6.5769954,7.2496543,7.565282,75.526
157,-83.0,0.0,317.0,-469.0,3136.0,0.62537456,2.6815696,2.2197025,1.0470686,-0.2228055,1.1136401,3.2333996,0.71829695,1.6671574,0.3179901,1.1570392,-0.49644136,0.5642031,0.40694413,2.344213,1.1484545,18.525808,5.0,-3.0,-36.0,8.0,1010.0,1.4048426,5.7054057,1.4649823,1.8092035,4.4221287,8.056268,9.064328,7.451053,4.9421825,8.3413725,6.3807435,4.628091,3.797476,3.5063636,3.2125845,4.868653,79.05568
158,-113.0,31.0,-85.0,-1451.0,3293.0,0.62537456,2.4746215,2.4727764,1.1284728,-0.17300975,0.8495664,3.0902352,0.78377414,1.6671574,0.3179901,1.1570392,-0.43155134,0.68147284,0.29151344,2.0853581,1.2454054,18.266195,6.0,-5.0,-61.0,-12.0,1049.0,3.8033748,7.6525884,1.2504195,4.2855067,4.3811865,13.154247,13.365795,11.18932,4.6487975,7.382074,7.4260187,4.628091,1.4678724,1.5652046,1.3579235,1.7356439,89.29407
159,-5.0,-21.0,-1255.0,46.0,2148.0,0.6762685,2.8229468,4.155029,4.929922,0.820021,0.8495664,2.9785597,0.45960155,1.9321578,1.2045084,1.0021396,-0.17807701,4.7564588,3.1385634,42.317085,35.949707,107.81445,2.0,-21.0,-189.0,-141.0,1776.0,5.543183,6.2847457,4.216827,26.84037,2.620391,16.704481,18.043566,11.119482,1.6475185,2.540784,1.3611367,-0.088089146,1.106159,1.4009615,1.6872956,0.729508,101.75832
160,1.0,-2.0,-8.0,-46.0,1081.0,1.1169024,3.039996,4.731459,4.7446065,2.0317552,1.695256,3.0062442,0.48530015,1.4746094,6.0725074,3.5925481,1.6432137,22.421543,7.8313932,28.133278,26.790537,118.81115,-11.0,-38.0,-662.0,110.0,2992.0,-0.21431808,3.1494818,1.2178265,1.4216319,-0.3714619,2.2054105,4.6619825,0.5802484,1.2607923,0.11738434,0.9206464,-0.088089146,-0.3845588,0.27243313,1.8478655,-0.7789142,15.818362
161,0.0,-2.0,-2.0,17.0,1000.0,1.6014339,3.568771,3.4806008,3.9352038,1.7401323,3.395999,4.5719023,2.2011373,2.2536836,4.1935925,5.4701347,3.4921393,16.667727,6.6991467,16.34023,14.246378,93.85821,-81.0,144.0,-557.0,1603.0,515.0,-0.58810455,3.3502357,1.0696614,1.1448987,-0.79731625,1.668151,4.318669,0.6487849,1.5806947,0.24858661,0.91407496,-0.38909772,-0.26711157,0.43781045,1.8478655,0.5742951,15.762096
162,78.0,-86.0,126.0,839.0,588.0,0.62537456,2.8946388,2.170734,1.2881181,-0.029468155,0.98210907,3.0340843,0.78377414,1.9321578,0.3179901,1.1570392,-0.36728334,0.5642031,0.0512933,2.0853581,1.6999571,19.190083,147.0,-4.0,86.0,-1130.0,2712.0,-0.02758699,3.0822277,1.3899724,1.3807492,-0.4744062,1.400345,4.0718846,0.523243,1.4680909,0.11738434,0.9206464,-0.38909772,-0.44234455,0.47162265,1.1025935,1.9985209,16.593845
163,84.0,40.0,-143.0,715.0,665.0,0.7282036,2.3401487,1.9347457,0.7105949,0.061638564,0.7159244,3.0902352,0.85197794,1.7918508,0.3590551,1.100041,-0.43155134,0.68147284,-0.010825335,2.598446,1.596444,18.118402,61.0,-110.0,930.0,-3884.0,1468.0,0.06551421,3.2165387,1.6665663,1.5047237,-0.90978354,1.7351843,4.0718846,0.7005093,1.3779742,0.5057741,0.93664944,0.46275258,-0.20746252,0.6093758,2.1620681,3.469057,21.367327
164,32.0,-6.0,344.0,342.0,1313.0,1.001808,2.016596,1.8006647,1.0470686,-0.32549277,1.0479956,3.0340843,0.62537205,1.8600168,0.27855557,1.1269534,-0.561967,1.059888,0.112566754,3.3357117,1.8048427,19.264664,-54.0,18.0,-130.0,39.0,1309.0,0.7071733,2.460063,1.4270573,3.0044339,0.19982682,1.7351843,4.000637,0.523243,1.2260028,5.098818,1.8447034,1.1028469,11.951932,9.327147,35.80302,25.03741,105.44951
165,-91.0,-67.0,540.0,1213.0,1148.0,1.4158595,2.8946388,2.8482006,3.0336108,0.01652525,0.58109325,2.7890568,0.511785,1.9321578,0.63730115,1.1269534,-0.30362397,2.1671548,2.5700607,21.14293,22.216928,65.58063,-2.0,0.0,-22.0,19.0,1008.0,1.4048426,2.3153422,1.3537469,2.7898107,0.9224014,2.4075131,4.3955803,1.2623016,1.7202718,5.526054,3.5360787,2.7893872,14.705396,11.182843,26.837944,18.702461,101.851974
166,2.0,-2.0,54.0,-21.0,1146.0,0.88976693,3.039996,3.843906,4.55834,0.43255174,1.0479956,2.9510303,0.45960155,1.1748728,3.7880456,2.4445226,2.6855364,16.076376,8.857085,32.348076,24.083662,108.681366,0.0,-1.0,-33.0,19.0,999.0,0.7968263,3.3502357,1.6665663,1.8544017,2.7995899,3.7660708,5.6278796,4.2381916,2.792309,6.132327,3.7707136,3.7910128,8.546936,7.192983,9.070113,8.044449,73.440605
167,0.0,0.0,8.0,26.0,1004.0,1.2347175,3.964637,3.721521,3.9845905,1.4050676,2.0761762,4.1137366,1.3563265,1.9708807,3.8688605,4.6378765,4.0191665,15.49119,9.010458,20.831139,16.539335,98.22568,0.0,-1.0,-31.0,15.0,1008.0,0.7071733,3.4169607,1.4270573,3.624303,2.9693742,4.80206,6.793897,6.628521,3.3432806,5.025509,4.583376,4.133486,6.292036,5.726164,5.348222,7.1610518,71.98247
168,0.0,-1.0,7.0,22.0,1001.0,1.727164,4.4584274,3.1297653,4.2273436,1.8994402,3.6489182,5.4690423,3.5766315,2.1367946,3.4667008,6.6188374,7.142169,9.489661,7.9727635,10.870236,9.157271,84.99117,2.0,-2.0,-39.0,10.0,1005.0,0.5261351,4.863565,1.5836129,10.564457,3.0681283,5.7161875,8.153379,8.149714,3.4724658,4.951553,3.3066435,4.133486,2.3064318,4.2774434,3.4320974,5.24901,73.75431
169,27.0,-7.0,-7.0,16.0,1062.0,3.9188957,4.7983828,5.5941386,7.8135056,2.1343691,13.681261,13.000267,17.228735,2.1367946,1.4608864,4.191704,10.406552,0.92940825,1.5156964,0.6166038,3.040751,92.46794,3.0,-38.0,-204.0,-106.0,1744.0,3.9935899,4.2949038,3.1948752,18.111284,1.3271693,10.166767,12.164878,9.634216,1.2223802,1.4689251,1.2103754,0.19552408,1.106159,1.2410948,1.8478655,0.5742951,71.7543
170,52.0,-8.0,-91.0,-49.0,1324.0,5.62754,8.184629,12.445145,19.919325,1.8031381,13.584244,15.058004,26.974577,1.6104891,0.4459035,0.9935302,5.5875,0.8032392,1.0927042,0.9988511,2.072863,117.201675,217.0,-88.0,117.0,1688.0,529.0,-0.40133697,3.2165387,1.1258825,1.1071887,-1.0247353,1.668151,4.1444016,0.75680923,1.4680909,0.37804067,0.91615796,0.28637108,-0.024885884,0.6444469,1.5240719,0.254838,16.040031
171,117.0,6.0,-31.0,-160.0,1963.0,4.8297687,11.565593,16.652758,48.892998,0.14933562,3.395999,7.9793286,13.671626,1.6671574,0.68860215,1.0762466,2.537097,0.34354064,1.3319384,0.22326112,1.6480271,116.653275,136.0,-158.0,1273.0,1264.0,1184.0,-0.120884605,2.671903,1.155537,0.96101207,-0.57966906,1.2666298,4.1200867,0.75680923,1.4356092,-0.28699034,0.91615796,0.71459866,-0.08634382,0.57455915,1.8478655,1.7356439,17.082523
172,292.0,-401.0,-350.0,2853.0,1043.0,1.0589948,2.2739806,1.2941169,0.7963677,-0.66044307,1.1136401,3.53206,0.88707715,1.6104891,0.3590551,1.037792,0.5873366,0.74179983,0.29151344,0.322673,0.95922124,16.205675,46.0,-97.0,1192.0,90.0,2154.0,-0.40133697,3.4169607,1.0696614,1.1071887,-0.27079472,1.3334721,4.0718846,0.6018505,1.4356092,-0.5658293,0.9144459,0.28637108,-0.14720464,0.47162265,1.6060321,2.1260629,17.055996
173,98.0,72.0,206.0,731.0,964.0,0.5269141,1.8923761,1.9347457,0.4464872,-0.54407275,0.9159696,3.291799,0.71829695,1.6671574,0.3590551,1.0111572,0.5312053,0.68147284,0.3496027,1.4620366,1.2454054,16.489607,-239.0,23.0,-69.0,-500.0,1580.0,0.06551421,3.0822277,1.3899724,1.340312,-0.27079472,1.4672487,4.0718846,0.62470526,1.4356092,1.2375529,1.0375441,0.19552408,2.6253507,1.8198502,8.446419,7.3177814,35.886703
174,-48.0,-94.0,848.0,42.0,1455.0,0.5269141,1.8923761,1.9807236,0.4464872,-0.54407275,0.7159244,3.1185477,0.6866062,1.7918508,0.27855557,1.037792,0.24414083,0.6222699,0.3496027,1.998005,1.2944504,16.440174,-14.0,26.0,767.0,60.0,1389.0,0.34307277,2.8788168,1.7524498,2.6847296,-0.07612673,1.9364908,4.000637,0.49203193,1.3298384,2.1282513,1.061603,0.87444043,5.616367,5.5993686,41.54604,27.78023,99.94824
175,-85.0,-123.0,1053.0,-90.0,1956.0,0.5755724,1.8314093,2.2197025,0.4464872,-0.66044307,0.7159244,3.1470196,0.88707715,1.7918508,0.3179901,1.0555149,0.8080192,0.5642031,0.23265727,1.910103,1.1005566,16.943645,-10.0,-1.0,-36.0,29.0,1046.0,-0.40133697,2.0153022,1.3899724,2.6327543,-0.07612673,1.4672487,4.0242467,0.54091585,1.6832922,5.8000937,2.655659,1.5223149,14.705396,9.797215,37.867264,29.309906,114.93411
176,-97.0,38.0,-386.0,-2165.0,2716.0,0.4794531,2.079835,2.6844707,1.0470686,-0.60164267,1.0479956,3.1756516,0.9962451,1.6671574,0.3590551,1.0555149,0.36030018,0.68147284,0.29151344,1.910103,1.2454054,18.4796,-3.0,0.0,-64.0,45.0,989.0,-0.6812132,2.671903,1.2178265,1.9000177,1.0635871,2.2054105,4.318669,1.0236912,1.6475185,5.098818,2.7248724,2.183575,12.314242,9.095794,20.749266,14.549854,82.08383
177,-59.0,47.0,-348.0,153.0,1753.0,1.0589948,2.8229468,3.5403311,4.6050444,0.35508895,0.78288835,3.062081,0.65562785,2.0886557,2.085243,1.0021396,-0.36728334,7.6479983,3.3451757,37.701046,32.384163,102.77014,-1.0,-1.0,-53.0,28.0,996.0,-0.21431808,2.8103027,1.5836129,1.7644256,3.0681283,3.6975963,5.6610923,3.8680162,2.9700725,6.2624063,4.4176383,3.5373461,10.20062,8.565481,9.3424835,8.806548,76.34145
178,0.0,0.0,-9.0,36.0,1030.0,0.88976693,2.3401487,4.218085,4.2273436,1.1951033,1.1136401,3.0062442,0.45960155,1.2280577,5.011221,2.3091314,1.693604,21.61448,5.858329,27.44678,24.47322,107.084755,6.0,-4.0,-64.0,16.0,1010.0,0.9742058,5.0855436,1.7964481,1.5469275,4.9082527,7.755321,7.377261,6.3756933,6.082776,8.3413725,6.641946,4.866938,6.390202,4.861711,3.7965746,5.7781706,82.579346
179,-1.0,0.0,7.0,31.0,1004.0,0.9453843,2.5429127,3.9055545,4.370219,1.6164753,1.695256,3.062081,0.6866062,1.4746094,4.9293118,3.1867063,1.993321,18.785147,5.915724,22.766897,21.623219,99.49942,59.0,-15.0,-134.0,-110.0,1607.0,5.2629223,6.6323757,3.7265341,15.8213825,4.9082527,26.472477,37.208466,16.689854,2.1511,4.5714355,2.5873098,0.54836124,1.9181497,1.4416106,1.6872956,0.729508,132.35703
180,0.0,-1.0,8.0,27.0,1005.0,1.0589948,2.8229468,3.5403311,3.9352038,2.2045653,4.679111,5.510735,3.2870903,2.765595,4.5200353,6.521978,5.5875,14.768489,7.1503725,9.710771,9.991835,88.05556,-26.0,-56.0,-299.0,-841.0,2862.0,1.9717957,5.5463953,3.137357,4.409964,1.8397502,4.80206,5.728107,2.909392,1.8797586,1.5823739,1.1769611,1.6521019,0.22680476,0.43781045,0.65822107,-1.7320627,36.22679
181,59.0,2.0,-24.0,-4.0,1414.0,2.3712084,4.374759,9.252539,18.695736,2.7433784,19.02686,17.290905,18.619987,1.2920246,1.1427956,1.5139934,6.3032146,1.1267163,1.7374675,0.7131803,1.5452119,107.74998,-103.0,91.0,219.0,3830.0,1510.0,-0.40133697,2.5313163,1.1258825,1.0699425,-1.1422131,1.4672487,4.2182093,0.6487849,1.2908818,-0.015593896,0.9144459,-0.4934752,-0.20746252,0.37092736,1.1025935,0.41608608,12.896238
182,45.0,-8.0,-92.0,-44.0,1387.0,3.539445,5.9578342,13.450159,30.658451,1.6471323,17.698988,17.399094,19.68279,1.2358999,0.7412056,1.1213392,3.3892727,1.1945887,1.237611,1.2786435,1.7522303,121.98468,-2.0,-176.0,563.0,1361.0,922.0,-0.21431808,2.741349,1.155537,0.9968515,-1.3849128,1.4672487,4.0718846,0.91622525,1.3092324,-0.15037605,0.91407496,-0.38909772,-0.26711157,0.43781045,0.8390317,1.6002291,14.043657
183,39.0,-11.0,-111.0,-90.0,1668.0,3.3471012,7.6837544,17.090336,46.84754,0.43255174,11.98157,14.040729,17.615463,1.3134402,0.5873412,1.0049974,2.438316,0.8032392,0.7363365,0.9988511,1.8048427,128.7264,55.0,-51.0,26.0,252.0,2345.0,-0.120884605,3.1494818,0.94815916,0.788982,-0.6872919,1.6011511,4.0718846,0.54091585,1.2908818,-0.28699034,0.9206464,-0.5999362,-0.3845588,0.47162265,1.0157061,1.0311154,13.750885
184,-19.0,42.0,-370.0,1042.0,741.0,0.3883432,1.8314093,2.1223402,0.53566635,-0.66044307,0.9159696,3.2044446,0.5670702,1.6671574,0.3179901,1.100041,-0.49644136,0.45152625,0.7363365,1.6430112,1.596444,15.920866,120.0,16.0,53.0,-1080.0,3775.0,-0.120884605,2.8103027,1.2178265,0.9968515,-1.3849128,1.1998174,4.0242467,0.5069384,1.2908818,-0.015593896,0.91615796,-0.5999362,-0.26711157,0.37092736,0.92786545,1.3212451,13.194622
185,-9.0,64.0,-218.0,691.0,1065.0,0.34480792,1.8314093,1.9807236,0.7963677,-0.3784427,1.0479956,3.1756516,0.59584934,1.8600168,0.3179901,1.100041,-0.49644136,0.45152625,0.84098905,1.8216428,1.3936595,16.683788,61.0,-25.0,686.0,-5964.0,1276.0,-0.120884605,3.2834423,1.5037286,1.4216319,-1.1422131,1.1998174,4.0242467,0.6487849,1.3298384,0.5057741,0.961709,0.37543488,-0.024885884,0.43781045,3.359032,5.24901,23.012278
186,-110.0,2.0,106.0,121.0,2581.0,0.5269141,1.8314093,2.170734,0.26464337,-0.2228055,1.0479956,3.291799,0.59584934,1.6104891,0.3179901,1.0762466,-0.24055967,0.8032392,-0.13767837,1.1860161,1.2454054,15.367687,-36.0,-21.0,462.0,25.0,2453.0,0.34307277,2.3153422,1.3899724,2.4286761,-0.07612673,1.4672487,4.000637,0.44700068,1.3298384,3.1228504,1.2455392,0.19552408,9.527626,6.9852114,55.90143,37.823486,128.44733
187,-33.0,48.0,-756.0,-4138.0,2062.0,0.5269141,2.2739806,3.1297653,1.5198902,0.01652525,1.0479956,3.2333996,0.8175403,1.6104891,0.3590551,1.1903547,-0.49644136,0.2913384,0.62920773,2.5142007,1.6999571,20.364172,-7.0,1.0,-26.0,7.0,1059.0,0.6169291,2.3153422,1.2504195,2.3289623,0.109927386,1.400345,4.000637,0.43368348,1.4596487,6.83171,3.4589937,1.8982673,19.867579,9.956093,34.207417,24.573116,114.709076
188,0.0,144.0,-1525.0,-5896.0,1052.0,0.5755724,2.079835,3.2452195,2.163584,0.19197413,1.6313276,3.1756516,0.59584934,1.7275879,0.5387615,1.1269534,-0.36728334,1.1267163,1.3784666,8.838803,7.614498,35.643517,3.0,4.0,-19.0,32.0,997.0,1.1487815,2.741349,1.3183998,2.1342795,1.9405549,2.6099975,4.4215207,0.6740619,2.1511,5.934269,4.0099845,2.8360145,14.187902,8.121501,17.308924,11.554126,83.092766
189,-1.0,0.0,-2.0,27.0,1004.0,0.62537456,2.7519214,4.6017094,4.131015,1.9649955,1.6313276,3.3508573,0.5390452,1.5115868,5.338715,3.5925481,2.438316,22.584057,6.450619,21.353113,18.533676,101.39887,13.0,-6.0,-42.0,7.0,1016.0,2.765928,6.6323757,1.017704,2.086611,4.861193,11.071844,10.562753,8.854104,5.7732024,7.8627467,6.990533,5.4331393,2.3064318,2.45309,1.5240719,1.9985209,82.194244
190,0.0,-1.0,-1.0,27.0,1000.0,1.0589948,3.039996,3.782559,3.579716,2.1343691,3.395999,4.645402,2.0008655,1.8669722,4.60182,5.5644565,3.7528043,16.81652,6.6991467,14.540605,12.292884,89.77311,18.0,-8.0,-64.0,-53.0,1469.0,4.9468446,7.6525884,2.5829008,11.86405,4.505555,20.748388,26.606121,17.392767,1.8797586,5.098818,2.9374394,0.95205396,1.3216846,1.360586,0.8390317,1.1775941,111.866196
191,0.0,-1.0,-5.0,25.0,1002.0,1.001808,3.4913764,3.5403311,3.7850797,1.8031381,4.1596227,5.1437845,2.8927345,3.1164725,5.338715,6.425278,5.278021,15.49119,7.01932,12.065785,9.383001,89.93566,-18.0,-29.0,-509.0,1717.0,3485.0,-0.58810455,2.671903,0.90766317,0.9256469,-0.17236343,1.3334721,4.526822,0.75680923,1.2908818,0.11738434,0.91407496,0.10285662,-0.3845588,0.37092736,0.7491641,-0.07694865,13.44563
192,0.0,0.0,-5.0,21.0,1006.0,1.1754899,3.1136477,3.015892,4.976204,3.18813,8.562076,7.868637,6.1190004,4.601195,3.7880456,7.202639,6.855551,11.441223,6.6363835,4.934934,5.388263,88.86731,-27.0,51.0,-775.0,1821.0,410.0,-0.3078242,3.0147302,1.2839507,1.1071887,-0.4744062,0.8661904,4.1688595,0.6018505,1.3779742,-0.015593896,0.9206464,-0.088089146,-0.3845588,0.43781045,1.0157061,0.88176733,14.406204
193,37.0,-2.0,-100.0,-28.0,1453.0,3.0884988,5.1465125,11.237264,20.649681,3.533337,23.780884,21.994171,21.518435,1.7219117,1.2045084,1.5139934,3.543858,1.2634943,1.0434259,0.9042939,1.8048427,123.949104,18.0,-72.0,0.0,372.0,1750.0,-0.120884605,2.8103027,0.8720865,0.96101207,-0.90978354,0.9995556,4.095915,0.5069384,1.5806947,-0.28699034,0.9274927,-0.4934752,-0.20746252,0.5056839,1.4413807,1.1775941,13.86006
194,45.0,-5.0,-44.0,-104.0,2117.0,3.539445,7.883076,17.002228,61.304203,0.85268205,7.8601294,10.828332,11.991678,1.7219117,0.5387615,0.99799067,2.0429382,0.74179983,0.99363226,1.1860161,2.072863,131.5577,114.0,21.0,-576.0,-149.0,3139.0,-0.02758699,2.9469428,1.3183998,1.1830697,-1.5102179,0.66635096,4.000637,0.5069384,1.3092324,-0.15037605,0.93664944,0.19552408,-0.3845588,0.5399956,1.2736645,1.4621098,14.266774
195,71.0,11.0,-31.0,-102.0,3055.0,1.9181622,6.330086,12.67498,56.083656,0.5442065,5.1427746,7.868637,6.8340197,1.3746294,0.5873412,1.037792,2.0429382,0.99411494,1.7809118,0.9988511,1.596444,107.80954,74.0,-18.0,791.0,-3119.0,2638.0,-0.120884605,2.8788168,1.2504195,1.2607844,-1.0247353,0.93285894,3.977166,0.62470526,1.4680909,-0.015593896,0.9274927,-0.28676605,-0.20746252,0.5399956,2.3925955,1.8683945,16.465878
196,82.0,70.0,197.0,-353.0,2749.0,1.0589948,6.0502505,5.125731,8.375542,0.061638564,3.2070608,4.909242,3.1730397,1.2844456,0.40170717,1.1269534,1.0231618,1.4763035,0.99363226,-0.28503552,1.0530491,39.03572,-52.0,-6.0,1279.0,-4457.0,1344.0,-0.40133697,2.9469428,1.2839507,1.1448987,-1.0247353,1.668151,4.0479956,0.84938425,1.3779742,0.37804067,0.961709,-0.28676605,2.072062,1.6489786,9.710283,7.731038,34.10857
197,105.0,-210.0,313.0,3287.0,1309.0,0.83500034,1.9541074,1.757297,0.4464872,-0.32549277,1.3092263,3.291799,0.6866062,1.7275879,0.3590551,1.0111572,-0.17807701,0.6222699,0.23265727,1.2786435,1.2454054,16.25373,0.0,-1.0,-21.0,24.0,1021.0,0.5261351,2.6019106,1.186192,2.8963847,0.017956518,2.0036645,4.0242467,0.62470526,1.516997,6.132327,3.382508,2.597719,15.897973,10.116069,32.19832,24.573116,110.296234
198,-37.0,64.0,-175.0,1156.0,816.0,0.6762685,2.016596,2.1223402,0.96459174,-0.32549277,1.1136401,3.1756516,0.5670702,1.7275879,0.27855557,1.0111572,0.06630566,1.059888,-0.010825335,1.8216428,1.2454054,17.510382,3.0,-1.0,-33.0,36.0,993.0,0.06551421,2.741349,1.2504195,1.8544017,0.99380946,2.4075131,4.1200867,0.49203193,1.5476893,5.4562645,3.6137412,3.018198,11.475161,7.7589645,17.643631,11.925904,76.36468
199,-24.0,34.0,0.0,441.0,1492.0,0.62537456,1.8314093,1.8447038,1.0470686,-0.2228055,0.9159696,3.062081,0.5390452,1.7918508,0.27855557,1.0021396,0.0060154353,0.86577916,0.29151344,2.1721714,1.4438157,17.494688,-1.0,-1.0,-36.0,30.0,994.0,0.9742058,3.2165387,1.3183998,1.7644256,2.5831103,4.040653,5.464716,2.3989086,3.2795475,6.6445236,5.1730304,4.353835,9.416962,7.262783,7.5004086,7.588408,72.98046
200,-69.0,129.0,-1707.0,-4475.0,1975.0,0.3883432,2.5429127,2.8482006,1.8866427,0.23384206,0.9159696,3.1185477,0.62537205,1.7918508,0.40170717,1.1570392,0.0060154353,0.45152625,0.112566754,2.765482,1.5452119,20.79123,8.0,-7.0,-57.0,6.0,1067.0,3.5994637,7.2706466,1.1258825,2.7370825,5.2035046,12.974614,14.010007,11.75718,5.696368,7.382074,7.077678,4.7701573,1.6160301,1.6912804,1.0157061,0.88176733,88.80943
201,1.0,-144.0,946.0,897.0,419.0,0.5269141,2.8946388,3.2452195,3.3131433,0.01652525,1.1136401,3.1185477,0.5390452,1.7918508,0.7950735,1.0555149,-0.36728334,1.6231482,2.1198869,26.646639,24.342745,72.775246,18.0,-19.0,-177.0,-59.0,1980.0,5.3249445,6.4570227,3.2527292,21.419088,2.8684406,18.171564,20.537241,12.568295,1.7977502,2.739519,1.5852243,-0.088089146,0.8259624,1.4416106,1.5240719,-0.24757458,100.1778
202,0.0,1.0,2.0,26.0,1002.0,0.83500034,2.8946388,3.4806008,6.0665164,3.2356772,9.702701,7.4380827,5.990092,4.273404,2.9142385,7.8870363,6.645191,6.2624364,5.4676485,3.4154534,4.020522,80.52924,-65.0,-64.0,-353.0,-703.0,3087.0,0.4348344,4.088737,1.841129,3.0044339,1.5677431,4.941608,5.9339485,2.2352223,1.3618737,0.37804067,1.0375441,1.247966,0.099798664,0.823661,0.5661601,-1.5344609,28.02824
203,2.0,-9.0,-82.0,-92.0,1555.0,3.6667585,6.997482,17.356499,51.0525,1.7401323,16.62548,17.076338,15.936687,1.4060863,0.7950735,0.9935302,1.993321,1.1267163,0.78896344,0.9042939,1.9646784,140.42455,-29.0,-69.0,355.0,1120.0,674.0,-0.21431808,3.1494818,1.0972501,0.96101207,-1.2622584,1.3334721,4.1444016,0.7005093,1.4680909,-0.15037605,0.9206464,-0.28676605,-0.024885884,0.33785346,1.2736645,1.3212451,14.769023
204,66.0,-115.0,136.0,2728.0,1382.0,0.5269141,2.3401487,1.9347457,1.5198902,0.27496618,1.3092263,3.2333996,0.78377414,1.9321578,0.3179901,1.1269534,-0.30362397,0.34354064,0.4635567,1.7326152,1.3438697,18.880123,36.0,-41.0,-305.0,0.0,2038.0,-0.120884605,3.0147302,0.9701911,1.1448987,-1.3849128,0.8661904,4.095915,0.62470526,1.4356092,-0.15037605,0.91615796,-0.5999362,-0.3845588,0.43781045,1.3579235,1.3212451,13.544707
205,-35.0,51.0,-232.0,1301.0,630.0,0.43324408,2.6118977,2.2692344,1.3663871,0.19197413,0.98210907,3.0902352,0.6866062,1.8600168,0.24079579,1.100041,-0.30362397,0.39694083,-0.13767837,2.0853581,1.2454054,18.118944,123.0,18.0,-301.0,-585.0,3217.0,-0.21431808,3.2165387,1.0431386,1.1071887,-0.79731625,1.0662806,4.0242467,0.6487849,1.405584,-0.15037605,0.91407496,-0.5999362,-0.3261457,0.40424585,1.5240719,1.6002291,14.86629
206,-14.0,-1.0,-25.0,401.0,1350.0,0.78113025,2.079835,2.0273232,0.7105949,-0.07636962,0.98210907,3.1185477,0.5670702,1.7918508,0.3179901,1.0762466,-0.36728334,0.5642031,0.0512933,1.8216428,1.2944504,16.740635,65.0,166.0,76.0,-419.0,1744.0,-0.21431808,2.3880916,1.3183998,2.950226,-0.27079472,2.0036645,3.977166,0.44700068,1.2747478,1.8049235,1.0876157,0.71459866,4.7772737,4.7426357,56.203846,37.20707,120.41215
207,49.0,35.0,-1047.0,-4570.0,1151.0,0.62537456,2.3401487,2.4727764,1.6694453,-0.12420734,0.98210907,3.0902352,0.7506897,1.7918508,0.7950735,1.037792,0.06630566,1.4763035,1.5156964,9.173243,8.635849,36.298683,-57.0,-5.0,22.0,21.0,1564.0,0.15836105,2.3153422,1.6247147,2.4791176,-0.07612673,1.2666298,4.0242467,0.523243,1.516997,6.3269024,3.2314227,2.1283307,18.117191,10.4393215,38.061527,26.143755,118.280975
208,15.0,-53.0,-859.0,149.0,2155.0,0.6762685,2.4746215,3.782559,4.51152,0.5803147,1.1136401,3.0902352,0.43469995,2.0886557,1.0224552,0.9935302,-0.30362397,5.068451,3.555425,42.542984,39.06742,110.69916,2.0,0.0,-13.0,23.0,1002.0,1.1487815,2.5313163,1.186192,2.1342795,1.3271693,2.3401043,4.4215207,0.91622525,2.199781,6.955314,4.5003333,3.018198,16.30431,9.327147,24.061499,16.113626,98.485794
209,-1.0,-1.0,17.0,29.0,1008.0,1.1754899,2.8229468,3.782559,5.0224934,1.9320737,1.8226972,3.9793532,2.2011373,1.6328622,4.5200353,5.9446487,3.6479025,22.74694,12.4234295,22.766897,20.03092,116.45239,-3.0,-2.0,-21.0,24.0,995.0,1.4048426,3.550366,1.5037286,1.5047237,3.1006808,4.941608,5.6945014,2.6792462,4.0794253,6.893622,5.601205,4.915986,9.9745655,7.403195,7.332896,7.429206,78.0098
210,0.0,-1.0,20.0,33.0,998.0,0.6762685,3.1879394,2.8482006,4.08248,1.7401323,4.1596227,5.4690423,4.538874,1.5907557,3.4667008,5.4701347,4.7440224,11.441223,7.41762,10.870236,8.85842,80.561676,5.0,-3.0,-21.0,16.0,1012.0,1.3203002,4.5753713,1.3537469,1.9000177,4.678848,6.941047,7.9637184,5.8071394,4.6487975,7.200143,7.164807,6.0050573,5.1460767,4.6835136,2.5442617,5.5808444,77.51368
211,1.0,0.0,16.0,27.0,1002.0,0.78113025,2.6118977,3.4806008,6.0665164,2.7854345,8.881858,8.6702,8.694594,3.411361,3.0705388,7.3979635,7.5854445,6.715076,6.8259416,4.4178987,4.147061,85.543526,7.0,-7.0,-48.0,-14.0,1126.0,3.4920726,7.9472136,1.3537469,6.927563,4.3007917,12.006949,12.676397,9.307288,3.153873,6.0007005,4.583376,4.5353007,1.5417067,1.6489786,1.0157061,1.3212451,81.81291
212,33.0,-4.0,-84.0,-26.0,1372.0,2.8933523,4.6273603,12.521626,28.575483,3.18813,19.139488,17.399094,19.465302,1.247229,0.90645456,1.3443327,4.403184,0.92940825,1.7374675,0.9988511,2.0186105,121.395355,-94.0,83.0,-260.0,3986.0,1097.0,-0.40133697,2.741349,0.8892476,0.9968515,-0.3714619,1.400345,4.293332,0.91622525,1.3779742,0.24858661,0.9206464,-0.1864424,-0.3845588,0.5056839,1.4413807,0.254838,14.642661
213,70.0,-6.0,-188.0,-152.0,2542.0,1.727164,6.4242105,14.643629,78.269714,0.7198488,5.7537203,8.729899,7.8902287,1.3175522,0.3590551,1.0111572,2.1914272,0.74179983,0.78896344,1.1860161,2.0186105,133.77301,-26.0,-113.0,404.0,836.0,893.0,-0.40133697,2.741349,0.94815916,0.9968515,-1.1422131,1.0662806,4.1200867,0.62470526,1.3779742,-0.4254652,0.9206464,-0.38909772,-0.3261457,0.40424585,1.4413807,1.4621098,13.419529
214,52.0,-115.0,264.0,3314.0,1391.0,0.5755724,2.1438167,1.6313521,0.96459174,-0.27362347,1.5030082,3.2625175,0.71829695,1.7918508,0.27855557,1.0230237,0.12608112,0.50728446,0.29151344,0.7131803,1.1967388,16.45376,81.0,-38.0,-323.0,-153.0,3112.0,-0.49478763,2.9469428,1.0431386,1.2607844,-0.90978354,0.79954964,4.0718846,0.54091585,1.5405912,-0.015593896,0.91407496,-0.4934752,-0.26711157,0.47162265,1.4413807,1.0311154,13.881248
215,-74.0,9.0,211.0,1189.0,501.0,0.4794531,2.4070313,2.2197025,1.2881181,-0.54407275,0.9159696,3.1185477,0.62537205,1.5575138,0.3179901,1.0111572,0.0060154353,0.74179983,0.17301486,1.6430112,1.4438157,17.40444,72.0,-60.0,991.0,-5386.0,1340.0,-0.02758699,2.8788168,1.6247147,1.3003229,-0.6872919,1.668151,4.0479956,0.81747633,1.3527391,0.24858661,0.97752035,0.87444043,-0.024885884,0.5399956,4.2342563,5.1891584,25.014408
216,-26.0,38.0,-258.0,549.0,1049.0,0.3883432,2.079835,2.2692344,0.7105949,-0.3784427,0.98210907,3.0340843,0.65562785,1.8600168,0.3179901,1.0111572,0.41770005,0.86577916,0.112566754,2.5142007,1.3936595,18.234457,28.0,128.0,-457.0,-537.0,1367.0,0.06551421,2.671903,1.4649823,2.3289623,-0.3714619,1.9364908,4.0242467,0.44700068,1.3298384,1.1195782,0.9954594,0.6322977,4.0596466,3.7754433,44.694668,32.16591,101.34048
217,-61.0,-9.0,86.0,308.0,1849.0,0.6762685,2.1438167,1.8894016,0.6236984,0.10589952,0.9159696,3.0062442,0.6866062,2.0083463,0.3179901,1.0021396,0.3024515,0.68147284,0.112566754,2.5142007,1.2454054,18.232477,0.0,0.0,-27.0,26.0,1010.0,-0.02758699,2.741349,1.3537469,2.4791176,0.6196776,2.070875,3.9538326,0.49203193,1.516997,6.45488,4.335307,3.1070695,16.577682,10.116069,30.617188,22.197073,108.60531
218,-92.0,90.0,-972.0,-3887.0,1890.0,0.5269141,2.1438167,2.3699443,1.208818,0.19197413,0.98210907,2.9785597,0.65562785,1.3811861,0.27855557,1.100041,0.06630566,0.86577916,0.29151344,2.4294593,1.5452119,19.015818,0.0,0.0,-40.0,37.0,989.0,0.4348344,3.0822277,1.155537,2.086611,1.6801536,2.677582,4.193462,0.55992734,2.1511,6.132327,4.0099845,3.5373461,11.357086,7.5446906,14.806647,10.079189,75.48871
219,-8.0,-163.0,-11.0,-493.0,1521.0,0.6762685,3.2628646,3.3621864,3.9845905,0.39413992,0.8495664,3.1185477,0.45960155,1.8600168,0.68860215,1.037792,-0.17807701,3.110241,2.934532,38.09433,32.554184,96.20938,0.0,-1.0,-32.0,29.0,996.0,0.9742058,3.2834423,1.5037286,1.7644256,2.7995899,3.0841057,5.3062825,2.07537,2.8508651,6.6445236,5.4293776,4.7224,10.087377,6.9164963,7.7542596,7.8822265,73.078674
220,0.0,-1.0,11.0,10.0,1015.0,0.62537456,2.7519214,3.782559,4.929922,1.7089458,2.7676418,3.8805258,1.666892,2.3752713,5.9099965,3.845287,3.543858,23.56687,10.721951,25.367168,21.740868,119.18505,0.0,-2.0,-35.0,22.0,1004.0,1.4885397,3.88536,1.5432782,1.2216991,4.2223105,6.0726457,6.9148903,5.1765904,4.6487975,7.8627467,7.164807,5.4331393,8.761908,5.9184117,3.8694198,6.1232886,80.30784
221,-2.0,-1.0,7.0,24.0,1006.0,1.001808,2.9669907,3.5403311,4.4645696,2.1343691,3.8395724,4.286012,2.4601977,2.1946344,4.1935925,5.1891766,3.858618,15.929499,7.691746,14.937759,13.38088,92.069756,16.0,-4.0,-37.0,-32.0,1274.0,3.9472632,8.350797,2.0742145,4.5356884,5.2549157,15.798977,16.040339,12.1948805,3.9411962,6.5183907,5.2582755,4.0901203,1.6908393,1.4416106,0.8390317,0.5742951,92.55083
222,0.0,0.0,6.0,15.0,1003.0,0.83500034,3.568771,3.2452195,4.976204,2.50152,6.8877997,6.92636,4.354862,3.5629528,3.4667008,6.6188374,6.5071173,9.871541,6.3288674,6.4170976,5.72562,81.79447,-41.0,-59.0,-649.0,-256.0,2577.0,3.3809175,6.6323757,7.012241,25.699907,2.6571524,10.574607,9.6704235,7.3877025,1.8382001,2.2333262,1.1769611,1.0281774,0.55420226,0.7872999,1.3579235,-0.42141443,81.57001
223,39.0,0.0,14.0,-5.0,1094.0,1.9823542,2.9669907,6.001802,9.966605,5.575401,17.807985,13.9513235,13.910845,5.699836,1.9415414,5.4701347,8.28085,1.4043623,2.0363848,1.3706472,1.8048427,100.17191,-108.0,144.0,-286.0,3375.0,1411.0,-0.02758699,2.6019106,1.1258825,0.9256469,-0.3714619,1.3334721,4.318669,0.81747633,1.3779742,0.24858661,0.9144459,-0.088089146,-0.26711157,0.47162265,1.3579235,0.09050758,14.829868
224,41.0,-4.0,-43.0,-129.0,2082.0,3.539445,6.0502505,16.91442,73.38733,0.9487908,6.8877997,8.850307,7.5582027,1.5115868,0.5873412,0.99799067,1.7939655,0.86577916,0.68309057,0.8090736,2.1274328,133.5128,1.0,-76.0,217.0,1032.0,555.0,-0.40133697,2.8788168,1.155537,1.2216991,-0.4744062,1.6011511,4.1688595,0.75680923,1.405584,-0.015593896,0.9144459,-0.38909772,-0.3261457,0.43781045,1.4413807,0.729508,15.105021
225,108.0,57.0,156.0,-435.0,2644.0,0.9453843,4.884663,4.6017094,6.317114,0.5442065,3.081364,4.286012,2.050322,1.4623692,0.3590551,1.1269534,0.18535511,0.92940825,1.0927042,0.123114325,1.1484545,33.138187,11.0,-87.0,142.0,556.0,1476.0,-0.49478763,3.0822277,1.017704,0.85634995,-0.79731625,1.1330345,4.1200867,0.62470526,1.4356092,-0.015593896,0.91407496,-0.8192602,-0.3261457,0.37092736,1.1885669,0.5742951,12.864478
226,38.0,-36.0,253.0,1980.0,1150.0,0.5269141,2.4746215,1.8447038,1.0470686,0.23384206,1.1136401,3.291799,0.5670702,2.0083463,0.27855557,1.100041,-0.30362397,0.5642031,0.0512933,1.5528215,1.596444,17.94774,68.0,-54.0,439.0,-3655.0,2239.0,-0.21431808,2.8103027,1.2839507,1.2607844,-1.0247353,1.7351843,4.0479956,0.6740619,1.3779742,0.24858661,0.9480702,0.19552408,-0.14720464,0.6444469,2.3925955,1.8683945,18.101616
227,19.0,-7.0,-38.0,558.0,951.0,0.3883432,1.7712145,2.0745327,1.1284728,-0.32549277,0.98210907,3.0062442,0.6866062,1.7918508,0.3179901,1.100041,-0.30362397,0.45152625,0.23265727,1.998005,1.8048427,17.10532,-103.0,35.0,263.0,-1057.0,5681.0,-0.49478763,2.671903,1.1258825,1.4629576,-0.90978354,1.1330345,4.095915,0.5069384,1.4356092,1.1195782,0.9954594,0.54836124,2.1497214,1.7767159,16.535433,10.250165,44.403103
228,-21.0,-45.0,430.0,104.0,1587.0,0.5755724,2.4070313,1.8894016,0.7963677,0.10589952,0.7159244,3.1185477,0.62537205,1.6671574,0.27855557,1.0555149,-0.36728334,0.45152625,-0.010825335,2.1721714,1.4438157,16.92475,0.0,0.0,-21.0,14.0,1004.0,1.9717957,2.671903,1.4649823,1.9000177,2.3878675,3.7660708,4.7450085,1.3048861,3.0306902,6.6445236,4.1718097,3.3672721,17.550272,9.718187,21.464945,14.95061,101.11083
229,-87.0,53.0,120.0,-1192.0,3144.0,0.3883432,2.5429127,2.3699443,1.4436396,0.14933562,0.8495664,3.062081,0.65562785,1.2586197,0.3590551,1.1903547,-0.30362397,0.5642031,0.29151344,2.2584534,1.3936595,18.473686,6.0,0.0,-30.0,15.0,1001.0,1.8935965,3.8180509,1.2178265,1.3003229,3.3259125,4.2473493,6.219956,3.8680162,3.5378888,6.5183907,4.1718097,3.018198,10.20062,6.5769954,9.43394,7.706742,77.05562
230,-38.0,-130.0,766.0,-107.0,886.0,0.5269141,3.1879394,3.1297653,4.0336776,-0.029468155,1.5030082,3.3212454,0.511785,1.9321578,0.49160206,1.0111572,0.0060154353,1.8506688,2.1613858,25.998707,23.32107,72.95763,2.0,-1.0,-37.0,12.0,989.0,2.125266,4.1571116,1.3537469,1.3003229,3.7518406,5.221841,8.201496,5.8071394,4.010088,6.893622,4.834421,3.5373461,8.227627,5.4736714,5.730241,7.069235,77.69502
231,100.0,-6.0,110.0,15.0,1638.0,0.7282036,2.6815696,3.9055545,4.6981635,0.39413992,1.0479956,2.9236548,0.45960155,1.2844456,3.2281487,1.6092986,0.69842094,14.197457,6.6363835,31.075043,27.219753,102.78784,1.0,-2.0,-39.0,3.0,1004.0,1.4885397,5.2365623,1.3537469,1.4216319,4.3811865,7.3828607,8.853477,7.514424,6.082776,8.702122,6.1200285,4.5353007,6.587765,4.6246696,3.4320974,6.274377,83.99157
232,4.0,-3.0,-12.0,20.0,1032.0,1.001808,2.3401487,3.6607985,5.1151457,1.8349859,2.0129592,3.8805258,1.1905099,1.4394279,4.60182,3.5925481,2.537097,18.325232,9.401301,24.2696,21.389532,106.59344,17.0,-5.0,-38.0,-39.0,1182.0,4.4552407,7.6525884,1.3183998,6.2087975,4.678848,16.29851,20.29697,13.105675,4.149196,6.5183907,6.03328,3.1510415,0.8952313,1.4825337,1.1025935,0.41608608,97.76338
233,-1.0,-3.0,-4.0,41.0,1001.0,1.1754899,2.079835,2.9036698,5.1151457,2.0998187,3.712368,5.6372266,3.9915302,2.313907,4.60182,5.282478,4.1820602,16.076376,10.048448,15.098486,11.884521,96.20318,-64.0,-60.0,-245.0,-307.0,2394.0,1.8144386,5.01096,3.9086747,5.585484,1.9893855,8.131935,8.347558,4.9251356,2.0566142,1.0000433,1.0876157,0.71459866,0.8952313,0.8971685,1.2736645,-1.1498079,46.488705
234,0.0,-2.0,2.0,37.0,1003.0,0.88976693,1.8314093,2.8482006,5.1615334,2.0317552,4.679111,6.395645,5.036237,2.3752713,4.1935925,5.5644565,4.9778314,13.35302,8.781037,11.638805,9.53426,89.29193,-80.0,-1.0,-46.0,1106.0,426.0,-0.02758699,2.741349,1.4270573,1.0699425,-1.2622584,1.1330345,4.2681437,0.8823086,1.2908818,0.24858661,0.9274927,0.0083313575,-0.3261457,0.40424585,1.7678958,0.88176733,15.435046
235,0.0,0.0,1.0,26.0,1005.0,1.0589948,2.6815696,4.5371714,9.892871,2.8280098,10.903763,9.409174,10.977241,5.103089,2.682582,6.6188374,7.069852,4.450625,5.044064,3.5737262,4.596391,91.42796,-81.0,58.0,-311.0,263.0,1527.0,-0.120884605,2.671903,1.3899724,0.9968515,-1.1422131,1.0662806,4.0242467,0.6487849,1.4356092,-0.15037605,0.91407496,-0.088089146,-0.20746252,0.43781045,1.8478655,1.4621098,15.186482
236,0.0,0.0,-1.0,23.0,1005.0,1.4772713,2.8229468,4.862074,12.954335,2.914748,12.819043,10.475122,11.1200695,4.0319843,2.2313905,5.9446487,8.044954,3.477988,4.263411,2.344213,3.401055,93.18526,-139.0,431.0,-967.0,-1659.0,1678.0,-0.120884605,2.741349,0.99338055,1.0699425,-0.6872919,0.9995556,4.0718846,0.9511102,1.3779742,-0.015593896,0.91407496,-0.088089146,-0.3845588,0.40424585,1.1025935,0.41608608,13.74578
237,-12.0,354.0,445.0,310.0,1096.0,0.9453843,4.0455456,4.218085,7.6931696,-0.32549277,1.4385979,3.6249738,2.2011373,2.0886557,0.4459035,1.0555149,0.6430709,0.39694083,0.23265727,0.8090736,2.5749655,32.08818,219.0,77.0,-419.0,-218.0,2454.0,-0.21431808,2.8788168,1.9324735,3.2808964,-1.0247353,4.2473493,8.201496,13.581122,1.3092324,-0.015593896,0.93664944,0.71459866,0.16301422,0.7872999,1.2736645,1.7356439,39.78761
238,-15.0,458.0,452.0,326.0,902.0,0.7282036,3.039996,2.5249617,2.6163769,0.19197413,1.6313276,3.4105818,0.88707715,1.4200655,0.3179901,1.037792,-0.11616254,0.19057897,0.0512933,1.2786435,2.5749655,21.78566,26.0,6.0,45.0,19.0,1290.0,3.4369714,5.94927,1.7524498,4.2237577,3.7179666,13.884659,14.343664,18.893696,2.792309,4.8769317,4.335307,3.5796535,2.072062,1.6069535,2.1620681,3.369534,90.99726
239,-114.0,453.0,361.0,844.0,894.0,0.7282036,2.4746215,2.0273232,0.8810291,0.35508895,1.3092263,3.062081,0.59584934,1.5575138,0.3179901,1.2269567,-0.17807701,0.048748445,0.23265727,0.9988511,2.237508,17.875572,-4.0,0.0,-39.0,9.0,1025.0,3.5994637,5.867257,1.7524498,2.1823514,3.6509569,8.056268,8.010716,11.542244,4.3609962,6.5183907,4.9186883,5.1682467,8.016843,3.4533906,4.675206,6.3452435,88.11872
240,-97.0,410.0,-285.0,472.0,1116.0,0.62537456,2.9669907,1.8894016,0.96459174,-0.12420734,0.78288835,3.0062442,0.6866062,1.5575138,0.27855557,1.2269567,-0.36728334,0.34354064,0.57467,1.6430112,1.9110706,17.965925,-2.0,0.0,-14.0,34.0,1000.0,0.8858494,3.2834423,1.7524498,2.4286761,0.19982682,2.4075131,5.18285,3.5027225,1.9661077,5.2435646,4.0099845,4.581513,14.187902,8.791129,16.865652,9.553555,84.84274
241,-56.0,323.0,-290.0,867.0,1002.0,0.7282036,2.5429127,1.8894016,1.2881181,-0.3784427,1.2442449,3.2625175,1.2311249,1.7275879,0.3179901,1.1903547,-0.30362397,0.2913384,0.40694413,1.6430112,2.0186105,19.100292,0.0,0.0,-11.0,27.0,1019.0,1.7343367,4.434259,1.5836129,2.0393481,2.262535,4.2473493,6.5197487,7.3243704,2.403607,5.595315,5.601205,5.0154533,9.416962,5.8540554,5.88494,6.31018,76.22728
242,0.0,0.0,-18.0,46.0,985.0,0.5755724,2.9669907,2.1223402,4.51152,0.6510133,3.7759173,6.3490024,5.7974257,1.6104891,0.9638952,1.2706093,2.1914272,2.6687841,2.7319348,5.862534,7.1854153,51.23487,-6.0,160.0,946.0,334.0,1502.0,4.2137504,6.4570227,2.026358,14.350616,2.620391,10.329208,11.742892,16.788427,1.9224021,3.3078067,1.3611367,4.133486,3.3690608,1.2410948,1.4413807,4.023445,89.32848
243,0.0,1.0,-15.0,34.0,1024.0,0.62537456,2.4070313,2.2692344,4.6050444,0.47034997,4.613609,7.281541,5.5419226,1.1667824,3.0705388,3.7603283,3.4406135,7.177032,6.090332,13.537258,11.641997,77.69899,-85.0,206.0,-540.0,-114.0,1152.0,6.909842,9.19376,9.744952,35.55928,1.3271693,5.929709,7.6874666,8.277246,1.2908818,0.8789219,0.91615796,0.71459866,1.4678724,0.751199,0.7491641,2.8392339,94.23745
244,0.0,0.0,-21.0,28.0,1010.0,0.34480792,1.8314093,2.5776458,4.7446065,1.0115192,5.0093393,7.3334293,7.162114,1.6765945,4.1122165,4.8198996,4.918864,15.05639,7.7613544,16.596718,14.868691,99.8256,-164.0,15.0,48.0,-429.0,1903.0,5.169527,6.1997504,5.622864,11.86405,0.19982682,3.1520402,5.728107,4.3002615,1.3298384,0.24858661,0.91615796,0.46275258,0.037163474,0.40424585,0.7491641,-0.24757458,46.13676
245,0.0,0.0,-20.0,22.0,1005.0,0.3883432,3.039996,4.5371714,7.0597734,1.3751245,10.991878,10.756895,15.237273,1.4746094,2.5302444,6.812983,7.4358926,6.0397115,6.389535,6.210329,5.388263,95.66801,-359.0,224.0,-273.0,1495.0,2366.0,1.0618607,2.671903,0.8892476,0.85634995,-1.1422131,1.3334721,4.243103,0.5069384,1.6234243,-0.015593896,0.91407496,-0.088089146,-0.3261457,0.47162265,1.9272367,-0.24757458,14.679616
246,62.0,0.0,-79.0,-46.0,1852.0,1.2347175,5.1465125,13.843544,24.435818,0.14933562,7.707392,11.191588,28.72792,1.508163,0.7950735,1.1213392,3.33811,1.4043623,0.8924309,3.3357117,2.237508,107.069534,-45.0,-70.0,-462.0,2101.0,1022.0,-0.3078242,2.8788168,1.1258825,1.0699425,-0.3714619,1.1998174,4.095915,0.7005093,1.5030708,-0.28699034,0.9480702,-0.4934752,-0.26711157,0.5056839,1.2736645,1.3212451,14.895755
247,22.0,107.0,564.0,-148.0,2643.0,0.78113025,4.6273603,6.6222234,22.264414,0.31537306,2.2023566,6.074574,7.823681,1.2162255,0.49160206,1.037792,1.5926688,0.8032392,1.0434259,1.3706472,1.3936595,59.660374,52.0,8.0,-410.0,698.0,1826.0,0.15836105,2.9469428,1.0696614,0.9968515,-1.3849128,0.5997927,4.0718846,0.6018505,1.3527391,-0.015593896,0.9274927,-0.4934752,-0.26711157,0.47162265,1.6060321,1.9985209,14.640658
248,-134.0,-136.0,480.0,1052.0,299.0,0.43324408,1.3183308,1.5509864,0.8810291,-0.27362347,1.1136401,3.1470196,0.62537205,1.4623692,0.3179901,1.1570392,-0.17807701,0.39694083,0.4635567,1.3706472,1.8577907,15.644256,28.0,313.0,-496.0,-2004.0,2733.0,0.06551421,3.0147302,1.1258825,0.96101207,-0.3714619,0.5332616,4.0718846,0.6487849,1.4356092,-0.28699034,0.9206464,-0.28676605,-0.3845588,0.43781045,1.8478655,2.7263794,16.459604
249,-83.0,37.0,-472.0,636.0,1076.0,0.4794531,1.4820763,1.5908005,0.6236984,0.061638564,0.7159244,3.0902352,0.5390452,1.6671574,0.24079579,1.1570392,-0.30362397,0.6222699,0.3496027,2.0853581,2.237508,16.638979,83.0,-93.0,-1373.0,-5832.0,1370.0,0.4348344,2.8103027,1.2504195,1.2216991,-0.79731625,0.8661904,4.0718846,0.6018505,1.5405912,0.37804067,0.9274927,0.10285662,0.75722075,1.2018073,9.251359,7.4741454,32.093376
250,-88.0,24.0,-546.0,383.0,1956.0,0.3883432,1.8314093,1.5908005,0.7105949,0.061638564,0.8495664,3.2333996,0.5390452,1.7275879,0.3179901,1.1269534,-0.30362397,0.5642031,0.17301486,1.6430112,1.9646784,16.418612,3.0,22.0,-186.0,169.0,2016.0,1.7343367,2.8103027,1.3183998,2.0393481,-0.6872919,0.9995556,4.0479956,0.5069384,1.3092324,2.1282513,0.93664944,1.0281774,6.587765,4.1639304,49.416958,33.47249,111.813034
251,-32.0,-43.0,-770.0,-765.0,2697.0,0.5269141,1.8314093,2.0273232,1.208818,-0.2228055,0.98210907,3.1470196,0.6866062,1.5575138,0.3590551,1.0762466,-0.05480285,1.059888,0.57467,1.6430112,2.1274328,18.53041,3.0,-3.0,-21.0,45.0,1000.0,1.9717957,2.8103027,1.186192,1.5469275,-0.17236343,1.8693534,4.000637,0.84938425,1.6129763,5.526054,2.5873098,1.8982673,15.230571,5.4736714,31.24012,16.671522,94.30272
252,-79.0,82.0,-971.0,-3707.0,1431.0,0.5755724,1.7712145,2.1223402,1.5198902,0.23384206,1.0479956,3.1185477,0.7506897,1.7275879,0.3590551,1.100041,-0.11616254,0.5642031,0.57467,3.0125263,2.9815881,21.343601,-2.0,-1.0,-20.0,38.0,991.0,1.0618607,2.8103027,1.2839507,1.2216991,2.4678545,5.151636,5.594862,2.909392,3.7373142,6.955314,3.7707136,3.5373461,13.678004,5.9184117,13.4436035,8.692309,82.23457
253,-40.0,-2.0,-400.0,166.0,2551.0,0.83500034,2.5429127,3.4212167,4.6050444,0.7198488,1.0479956,3.0062442,0.5670702,2.0083463,2.013074,0.991665,-0.24055967,7.2939405,3.555425,35.990974,33.59217,101.95037,-3.0,-3.0,-19.0,25.0,1006.0,1.1487815,3.9528904,1.5037286,1.5047237,3.7859833,7.234985,6.8743215,5.8702826,4.50416,7.6830297,5.5152073,4.915986,10.773364,5.2255774,6.0407896,7.069235,83.60304
254,6.0,-1.0,29.0,15.0,1050.0,0.5755724,2.9669907,4.218085,4.55834,0.7870102,1.179053,2.9510303,0.48530015,1.1740463,4.7655163,2.5845795,0.6430709,18.020485,6.090332,27.177254,25.676218,103.85288,13.0,-10.0,-60.0,10.0,1023.0,2.6988423,6.6323757,1.6665663,2.1342795,4.4221287,10.656877,11.006905,11.329725,5.3158774,6.45488,4.5003333,5.325591,2.4649816,2.406034,2.0843077,2.2510602,81.35076
255,0.0,0.0,14.0,32.0,1003.0,1.2945465,3.8045368,3.3621864,3.9845905,3.0947585,6.7424,6.029727,4.477374,3.262466,5.093125,8.571719,5.462563,16.965693,7.9727635,9.508759,9.383001,99.010216,13.0,-7.0,-5.0,-17.0,1458.0,4.8811955,8.978653,2.9669151,14.350616,3.8551412,19.154316,24.938578,20.410456,1.5476893,3.837927,1.7369409,0.7953007,1.3945305,1.360586,1.6872956,1.6002291,113.49637
256,0.0,0.0,13.0,29.0,1005.0,1.2945465,3.8045368,3.303518,4.0336776,3.6373787,8.641566,7.3334293,5.7974257,4.1119967,4.275075,8.278443,5.1568575,14.482175,6.954435,7.0304646,6.972827,95.108345,-64.0,-44.0,-463.0,-136.0,2657.0,2.8970172,6.9924088,5.8848,22.028582,1.8906882,8.512946,9.727493,6.8181944,1.3219043,1.0000433,1.061603,0.37543488,0.35608995,0.9717296,1.1025935,-0.7789142,70.16261
257,0.0,0.0,13.0,28.0,1007.0,1.001808,3.2628646,3.015892,3.8855007,4.1950126,11.527074,8.376676,7.823681,4.601195,3.9498367,8.864526,7.142169,8.739153,5.858329,3.7304363,4.274434,90.24859,6.0,-13.0,-332.0,1274.0,2789.0,-0.120884605,2.671903,0.82838345,0.75602806,-0.3714619,1.8693534,4.3955803,0.78660965,1.3779742,0.5057741,0.9144459,0.0083313575,-0.26711157,0.40424585,1.1025935,-1.3403915,13.521375
258,50.0,-8.0,-57.0,-57.0,1937.0,2.6975994,6.8047996,16.307846,40.873436,1.1345121,9.95496,13.168851,17.518003,2.0248818,0.68860215,0.991665,1.893842,1.2634943,0.5194591,1.5528215,2.5179899,119.91278,-12.0,43.0,-578.0,1433.0,213.0,-0.21431808,2.741349,0.94815916,1.340312,-1.1422131,1.5341839,4.243103,1.0236912,1.3527391,0.24858661,0.9480702,-0.088089146,-0.14720464,0.40424585,1.8478655,0.41608608,15.456567
259,60.0,81.0,561.0,-59.0,2716.0,1.1754899,6.0502505,5.72944,11.522363,0.19197413,3.9033384,5.8092275,5.036237,1.2358999,0.49160206,1.100041,1.1289049,0.86577916,1.6497122,0.42136043,1.0530491,47.36467,25.0,-57.0,-191.0,508.0,1419.0,-0.40133697,2.741349,0.9273085,1.0331625,-1.1422131,0.93285894,4.1444016,0.62470526,1.2607923,-0.015593896,0.93664944,-0.1864424,-0.3845588,0.47162265,1.1885669,1.3212451,13.452518
260,-99.0,-21.0,-104.0,-2321.0,2916.0,0.3883432,1.7117988,2.0745327,0.96459174,-0.07636962,1.0479956,3.062081,0.65562785,1.6104891,0.27855557,1.1269534,-0.17807701,0.2913384,0.17301486,2.0853581,1.596444,16.812677,115.0,-31.0,439.0,-1760.0,3166.0,-0.40133697,2.3880916,0.94815916,1.1830697,-0.90978354,0.7329366,4.0242467,0.6487849,1.2747478,0.24858661,0.91615796,-0.4934752,-0.08634382,0.5056839,1.9272367,1.0311154,13.937878
261,34.0,-129.0,789.0,1298.0,488.0,0.5755724,2.4746215,3.1297653,3.0336108,0.061638564,0.9159696,3.0340843,0.45960155,1.7275879,0.5387615,1.1570392,-0.17807701,1.2634943,1.6497122,19.919989,19.16438,58.927746,-7.0,-103.0,1612.0,-6120.0,1104.0,-0.49478763,2.5313163,1.0696614,1.1071887,0.19982682,1.1330345,4.0718846,1.1392486,1.4680909,0.11738434,0.93664944,-0.4934752,-0.26711157,0.6797736,4.823374,5.7781706,23.800228
262,10.0,-5.0,60.0,-79.0,1180.0,0.4794531,3.039996,4.5371714,4.7446065,1.867082,1.2442449,3.0062442,0.43469995,1.247229,4.4383087,2.5139832,1.4399922,23.56687,8.188048,28.695936,26.50787,115.95174,-26.0,-19.0,557.0,28.0,2220.0,-0.120884605,2.2417529,1.0431386,2.4286761,-0.4744062,2.0036645,4.0242467,0.49203193,1.3092324,3.1228504,1.282413,0.95205396,10.314298,7.123455,46.37175,29.137255,111.251526
263,-1.0,0.0,0.0,11.0,1003.0,1.0589948,3.039996,3.6607985,3.7850797,2.1343691,2.5794792,4.079858,1.0338919,1.4746094,4.275075,3.845287,2.2408373,20.816593,7.01932,20.728125,19.811451,101.58377,5.0,-1.0,-39.0,33.0,1003.0,0.6169291,2.5313163,1.2178265,1.7200705,1.5096245,2.2054105,4.3955803,1.1392486,1.5796913,5.2435646,2.5873098,2.4477487,14.445695,8.121501,24.704182,15.258961,89.724655
264,0.0,0.0,-1.0,6.0,1005.0,1.4158595,2.8229468,3.3621864,4.7909904,3.7980669,9.124889,7.026421,5.669469,5.0187197,3.707407,7.984903,6.438724,13.9143505,6.512121,5.224444,5.72562,92.53711,-3.0,-1.0,-45.0,30.0,998.0,0.8858494,3.4169607,1.2839507,1.3003229,2.7292354,4.1783752,5.968968,3.6846623,3.2795475,6.3269024,4.9186883,3.7486942,11.832066,8.194821,10.556635,8.729841,81.03552
265,55.0,4.0,15.0,-21.0,1119.0,1.9823542,3.2628646,5.526721,8.505061,6.5719824,20.398785,15.639913,15.583694,5.2725616,1.8706715,5.0037165,8.440397,1.4043623,1.6497122,1.0927552,1.4943345,103.69989,-11.0,30.0,-590.0,1497.0,266.0,-0.774036,2.8103027,1.1258825,1.0331625,-0.90978354,1.668151,4.095915,0.91622525,1.2908818,0.37804067,0.91407496,-0.28676605,-0.44234455,0.33785346,1.8478655,0.729508,14.734934
266,-99.0,66.0,867.0,819.0,3180.0,0.7282036,3.1136477,2.0273232,1.1284728,-0.12420734,1.5030082,3.3508573,0.5390452,2.0083463,0.2047557,1.0762466,0.0060154353,0.39694083,0.5194591,0.123114325,1.4438157,18.045044,-8.0,-135.0,84.0,730.0,1118.0,-0.49478763,2.8103027,1.155537,0.82242346,-1.3849128,1.0662806,4.1200867,0.54091585,1.2747478,0.24858661,0.91407496,-0.38909772,-0.3845588,0.43781045,1.4413807,0.88176733,13.060556
267,-20.0,39.0,-233.0,1259.0,642.0,0.4794531,2.1438167,2.2197025,0.53566635,-0.2228055,0.98210907,3.0902352,0.5390452,1.9321578,0.24079579,1.0230237,0.12608112,0.45152625,-0.010825335,1.5528215,1.6480271,16.730831,63.0,-57.0,-234.0,221.0,2141.0,-0.58810455,2.9469428,0.90766317,0.9968515,-0.07612673,0.7329366,4.0479956,0.49203193,1.2908818,-0.015593896,0.91615796,-0.8192602,-0.3845588,0.47162265,1.2736645,0.254838,12.447943
268,-91.0,-28.0,549.0,68.0,2250.0,0.4794531,1.7712145,1.9807236,0.4464872,0.31537306,1.1136401,3.0902352,0.5670702,1.6104891,0.3179901,1.0111572,0.12608112,0.5642031,0.17301486,1.8216428,1.4438157,16.83259,151.0,50.0,-505.0,-981.0,3437.0,-0.21431808,2.5313163,0.9701911,0.89075863,-0.3714619,0.7329366,4.0479956,0.54091585,1.2747478,-0.28699034,0.9206464,-0.9321988,-0.3845588,0.43781045,1.2736645,0.254838,11.686295
269,-101.0,45.0,-988.0,-3264.0,2646.0,0.4794531,2.1438167,2.4727764,1.208818,0.39413992,0.98210907,3.1185477,0.6866062,1.6104891,0.3179901,1.1570392,-0.05480285,0.50728446,0.112566754,2.344213,1.6999571,19.181004,-1.0,88.0,674.0,245.0,2564.0,0.7071733,2.0153022,1.4649823,2.6327543,0.28769568,1.5341839,4.0242467,0.45600685,1.2908818,2.540784,1.0375441,0.71459866,6.687163,5.5993686,52.407867,32.908146,116.3087
270,11.0,222.0,-638.0,-6446.0,971.0,0.3883432,2.2085342,2.3193185,2.0956562,0.31537306,0.98210907,3.062081,0.6866062,1.7918508,0.68860215,1.037792,-0.11616254,0.68147284,0.84098905,7.4349694,6.4124055,30.82994,-13.0,0.0,2.0,25.0,1209.0,0.7968263,2.3153422,0.99338055,2.4286761,-0.6872919,1.668151,4.000637,0.49203193,1.3411214,5.934269,2.8657882,2.54837,16.991486,11.099115,35.985344,25.824371,114.59762
271,199.0,-40.0,680.0,732.0,916.0,0.18552329,2.2739806,2.5249617,2.6163769,0.39413992,0.9159696,3.3212454,0.5390452,1.5575138,0.7950735,1.0555149,-0.05480285,1.4043623,1.6053725,20.019485,18.533676,57.68744,8.0,-6.0,-52.0,2.0,1055.0,3.2659073,7.6525884,1.4270573,3.8006434,4.3007917,12.006949,13.684111,11.400306,5.4673104,6.955314,7.3389845,5.325591,1.5417067,1.360586,1.1885669,1.3212451,88.03766
272,-14.0,-104.0,-484.0,-261.0,2053.0,0.62537456,3.1136477,3.843906,4.55834,0.27496618,1.3092263,3.1470196,0.30264163,1.9321578,0.7950735,0.9935302,-0.43155134,5.068451,3.3035948,47.3921,41.788925,118.0174,22.0,-9.0,-57.0,-61.0,1563.0,5.543183,8.872175,3.5467043,15.621287,3.4222822,22.181599,34.065136,18.782072,1.2881961,4.3344336,2.2594805,0.28637108,1.2493383,1.2410948,1.3579235,0.5742951,124.62557
273,69.0,21.0,149.0,31.0,2040.0,0.7282036,2.8229468,3.5403311,5.2544928,-0.029468155,0.98210907,2.869362,0.34328243,1.3811861,3.8688605,1.6092986,0.24414083,18.325232,6.8899755,34.198868,32.21498,115.243805,-34.0,-36.0,-315.0,-64.0,2511.0,3.7031934,5.5463953,4.4669843,27.876337,2.3878675,10.739386,11.402442,7.5778165,1.6129763,2.0218422,1.145336,0.6322977,0.55420226,0.9717296,2.0843077,-0.7789142,81.9442
274,-2.0,-2.0,-2.0,27.0,1002.0,0.83500034,3.1136477,3.1297653,4.55834,2.540623,4.095358,4.8327994,1.7132366,2.4377434,4.1935925,6.9102445,4.0191665,14.768489,7.553822,12.791557,11.083013,88.5764,-34.0,-27.0,-621.0,-282.0,3987.0,-0.49478763,2.5313163,0.8416288,1.0331625,-0.79731625,2.5424585,4.6619825,0.75680923,1.2223802,-0.015593896,0.9206464,0.0083313575,-0.3261457,0.43781045,1.1885669,-0.5985127,13.912738
275,0.0,0.0,-3.0,20.0,1001.0,0.62537456,3.6467667,3.015892,4.4645696,3.2838058,7.107951,5.722745,3.518241,4.0319843,3.7880456,6.812983,4.459205,11.175052,6.2686152,7.0304646,6.5516157,81.5033,8.0,-92.0,-80.0,535.0,1386.0,-0.3078242,2.9469428,1.3537469,0.89075863,-0.79731625,1.2666298,4.095915,0.54091585,1.3527391,-0.015593896,0.9274927,-0.088089146,-0.26711157,0.57455915,1.6060321,1.3212451,15.401043
276,-1.0,1.0,1.0,12.0,1007.0,1.2945465,2.7519214,3.4212167,5.583004,4.816654,13.876204,9.03347,8.3581085,6.1308823,3.7880456,8.082766,7.4358926,4.450625,3.597998,1.6430112,2.6897683,86.95411,79.0,13.0,-591.0,-259.0,2536.0,-0.02758699,2.741349,0.94815916,0.85634995,-0.3714619,0.8661904,4.0718846,0.62470526,1.2607923,-0.15037605,0.93664944,-0.4934752,-0.3845588,0.40424585,1.5240719,0.729508,13.536448
277,2.0,-5.0,-77.0,-81.0,1499.0,3.6667585,6.5187488,14.7247,35.138565,3.1411588,24.159279,22.813488,16.944023,1.2280577,1.2672058,1.1213392,1.4910696,1.2634943,0.68309057,0.6166038,1.7522303,136.52982,97.0,-57.0,1163.0,-3760.0,2342.0,-0.120884605,2.9469428,1.3899724,1.1448987,0.19982682,1.2666298,4.0718846,0.6487849,1.5030708,-0.15037605,0.9206464,-0.1864424,-0.08634382,0.5399956,2.3161838,2.3735516,18.778341
278,54.0,68.0,401.0,-116.0,2842.0,1.9181622,8.387328,9.035407,14.106684,0.820021,4.942918,5.6372266,5.1619396,1.5115868,0.63730115,1.037792,0.8622928,1.2634943,1.8670038,0.022221994,1.4943345,58.705708,-166.0,114.0,1760.0,-1141.0,6556.0,-0.120884605,2.6019106,1.1258825,1.0331625,0.28769568,0.79954964,4.0718846,0.78660965,1.3298384,1.2375529,0.961709,0.71459866,2.5449398,1.8198502,15.448504,9.456373,44.099174
279,60.0,-85.0,-568.0,3594.0,1559.0,0.6762685,2.3401487,1.8006647,0.26464337,0.01652525,1.179053,3.062081,0.7506897,2.0886557,0.27855557,1.100041,-0.05480285,0.45152625,-0.010825335,1.2786435,1.4438157,16.665684,11.0,-31.0,673.0,-60.0,2428.0,-0.120884605,2.1672602,1.6247147,2.7898107,0.017956518,1.5341839,4.0718846,0.46653515,1.3298384,2.837085,1.2103754,0.6322977,9.196914,6.644352,53.258175,35.010414,122.67091
280,-13.0,30.0,84.0,1254.0,547.0,0.5755724,2.2085342,1.6726276,0.4464872,-0.54407275,1.0479956,3.0902352,0.62537205,1.9321578,0.27855557,1.0230237,0.12608112,0.50728446,-0.010825335,1.3706472,1.3438697,15.693546,1.0,0.0,-27.0,22.0,1007.0,1.4048426,2.2417529,1.2839507,1.9924934,0.84932375,2.2727373,4.318669,0.78660965,1.7202718,5.526054,3.929746,3.3244283,16.440748,10.2771435,28.8185,19.082026,104.269295
281,-117.0,2.0,-374.0,-2828.0,2773.0,0.43324408,1.9541074,2.5249617,1.4436396,0.01652525,1.5030082,3.0902352,0.71829695,1.8600168,0.3179901,1.0555149,0.06630566,0.2913384,0.112566754,2.0853581,1.2454054,18.718515,2.0,0.0,-38.0,27.0,998.0,0.7071733,2.741349,1.2504195,1.5047237,0.99380946,3.2880745,4.7171702,1.2204866,2.0566142,5.2435646,4.1718097,3.4099627,9.9745655,7.3328533,14.594449,9.315405,72.52243
282,178.0,-96.0,1199.0,2137.0,490.0,0.5269141,2.4070313,2.5249617,2.5540063,0.31537306,0.98210907,3.3508573,0.41060627,2.0083463,1.1427956,1.0230237,-0.05480285,1.1945887,1.5156964,18.106562,17.817474,55.825542,0.0,-1.0,-35.0,25.0,994.0,0.8858494,3.1494818,1.3183998,1.340312,1.8906882,4.5934114,5.7619114,2.6224856,2.510699,6.132327,4.2533584,3.6219203,8.333645,6.848053,8.890213,7.731038,69.8838
283,20.0,0.0,21.0,-7.0,1297.0,0.83500034,2.7519214,4.281402,4.7446065,0.85268205,1.2442449,2.869362,0.41060627,1.247229,4.4383087,1.9927261,0.5873366,20.816593,7.8313932,30.765827,27.655325,113.32457,-1.0,-1.0,-35.0,19.0,1000.0,1.6533073,3.6839662,1.7964481,1.1071887,3.197586,5.7872458,7.2481775,5.744007,3.8727617,7.382074,5.860081,4.6750493,8.333645,6.0479455,5.5766473,6.9255304,78.891655
284,0.0,-1.0,4.0,-9.0,1023.0,0.5269141,2.8229468,3.303518,4.370219,1.7401323,1.8862287,3.5014343,0.59584934,1.3451027,5.2568808,3.266219,1.893842,23.56687,9.560587,26.646639,23.32107,113.60445,34.0,-10.0,-70.0,-67.0,1506.0,5.3249445,9.19376,2.6905167,12.85349,4.1079698,23.680298,32.883457,18.560913,1.6475185,4.0069466,2.2594805,0.10285662,1.2493383,1.4416106,1.1885669,0.254838,121.44651
285,0.0,0.0,6.0,-1.0,1001.0,1.2347175,3.2628646,3.303518,4.0336776,3.1411588,6.31259,6.1196733,3.6940985,3.1164725,4.03096,6.6188374,4.2369084,14.339616,7.485506,9.374393,8.341142,88.64613,-4.0,-37.0,-220.0,-77.0,2213.0,4.296813,5.2365623,4.0312834,25.283546,2.5452807,13.884659,13.524016,8.597048,1.7584327,2.6407595,1.5852243,0.71459866,0.35608995,0.9343169,1.1885669,-0.42141443,86.155785
286,-1.0,1.0,8.0,-4.0,1015.0,1.0589948,2.8229468,2.9036698,4.7446065,5.015802,10.903763,8.318953,6.5728903,5.528382,4.3566513,9.253885,6.926544,9.112167,5.2528877,3.255556,3.8323214,89.860016,-34.0,26.0,89.0,3985.0,1876.0,-0.58810455,2.3880916,0.8164951,1.0331625,-0.6872919,1.7351843,4.3441553,0.81747633,1.2489771,-0.15037605,0.91407496,0.28637108,-0.26711157,0.40424585,1.2736645,-0.07694865,13.492064
287,-2.0,1.0,21.0,-11.0,1012.0,2.046764,3.2628646,3.721521,5.583004,5.3607,15.788159,10.90017,9.993616,6.304013,3.4667008,8.766988,7.142169,3.666547,3.2621517,0.8090736,2.1823156,92.25676,-29.0,-64.0,-321.0,1342.0,562.0,-0.49478763,3.1494818,1.017704,0.96101207,-1.0247353,1.3334721,4.095915,0.9511102,1.2908818,-0.015593896,0.9206464,-0.1864424,-0.3261457,0.37092736,1.2736645,0.254838,13.571948
288,38.0,2.0,35.0,-30.0,1033.0,2.5669734,3.4145896,5.392371,8.059122,6.653017,21.101698,16.038876,14.981573,6.2174077,2.2313905,6.521978,6.784995,1.4043623,1.909679,0.8090736,1.3936595,105.480774,-10.0,-88.0,-84.0,600.0,1262.0,-0.3078242,2.741349,0.90766317,0.89075863,-0.79731625,1.0662806,4.1200867,0.5802484,1.2607923,-0.15037605,0.91615796,-0.38909772,-0.3261457,0.5056839,1.1885669,0.5742951,12.781121
289,-1.0,-7.0,-88.0,-86.0,1563.0,4.4723735,7.3874297,13.293936,30.348406,4.374713,24.926044,23.660847,18.517002,1.3746294,1.2045084,1.1470188,1.693604,0.92940825,0.62920773,0.42136043,1.9646784,136.34517,42.0,15.0,-480.0,-15.0,2419.0,-0.02758699,2.741349,0.94815916,0.89075863,-0.27079472,0.7329366,4.0718846,0.55992734,1.3298384,-0.28699034,0.9206464,-0.28676605,-0.3261457,0.5056839,0.92786545,0.09050758,12.521273
290,74.0,-93.0,401.0,1294.0,824.0,0.3883432,2.4070313,1.9807236,0.8810291,-0.17300975,1.179053,3.0062442,0.5390452,1.9321578,0.40170717,1.0111572,0.41770005,0.39694083,-0.010825335,1.1860161,1.6480271,17.19134,143.0,-107.0,796.0,-3170.0,2642.0,-0.6812132,2.5313163,1.2504195,1.0699425,0.017956518,0.79954964,4.0479956,0.55992734,1.3779742,-0.15037605,0.91615796,-0.8192602,-0.20746252,0.5056839,1.8478655,0.729508,13.795984
291,31.0,90.0,-257.0,817.0,792.0,0.6762685,2.6815696,2.1223402,0.53566635,0.14933562,1.0479956,3.0340843,0.62537205,2.0886557,0.27855557,1.0021396,0.12608112,0.68147284,0.17301486,1.2786435,1.2944504,17.795647,-43.0,-75.0,1166.0,-4231.0,1223.0,-0.120884605,2.8788168,1.3899724,0.9968515,-1.2622584,0.93285894,3.977166,0.81747633,1.2908818,1.0000433,1.0154818,0.28637108,2.3064318,1.4825337,11.037634,7.588408,35.617786
292,-50.0,-32.0,485.0,147.0,1990.0,0.5755724,2.2085342,1.8894016,0.7963677,-0.029468155,0.64866316,3.0902352,0.511785,1.8600168,0.27855557,1.0230237,0.18535511,0.68147284,-0.010825335,1.910103,1.3438697,16.962662,6.0,47.0,1753.0,-142.0,2664.0,-0.3078242,2.2417529,1.6665663,2.7898107,0.109927386,2.2727373,4.000637,0.6018505,1.2316191,2.4395688,1.282413,1.1760979,7.4971614,5.983042,56.814007,36.598225,126.39758
293,-118.0,-61.0,346.0,-831.0,3523.0,0.62537456,2.079835,2.2692344,0.6236984,-0.12420734,0.8495664,3.1470196,0.511785,1.8600168,0.3179901,1.037792,0.0060154353,0.8032392,0.23265727,1.5528215,1.2454054,17.038244,0.0,0.0,-13.0,25.0,1010.0,0.15836105,2.6019106,1.0972501,2.8963847,0.5395253,2.5424585,4.243103,0.5069384,1.6129763,6.1975527,3.6919596,3.1510415,17.130424,10.4393215,28.38407,21.770475,106.96376
294,181.0,57.0,-4548.0,-7419.0,4880.0,0.4794531,3.039996,2.9036698,2.0956562,0.31537306,1.1136401,2.8964322,0.6866062,1.6671574,0.8501687,0.9924446,0.36030018,1.4763035,1.8240858,12.209469,12.457738,45.368492,0.0,-1.0,-25.0,29.0,989.0,1.4048426,3.1494818,1.3183998,1.9924934,2.4678545,3.8346126,5.213436,1.8185468,2.6773777,6.132327,4.666749,4.133486,8.978564,6.711981,7.2496543,7.429206,69.17901
295,1.0,-2.0,7.0,-14.0,1028.0,0.6762685,2.7519214,3.721521,4.6050444,1.7715249,1.3740072,3.0062442,0.48530015,1.5503165,5.5022545,3.7603283,2.8843443,25.741947,11.599948,27.31166,24.212893,120.95552,7.0,-3.0,-31.0,13.0,1017.0,1.3203002,4.5753713,1.3537469,2.0393481,4.033851,6.722121,7.6423655,6.754964,4.3609962,6.3910556,5.2582755,5.1682467,3.3690608,3.1414633,2.0843077,3.661855,67.87733
